"X","trialNum","rt","subject","condition","Focal1","Focal2","Focal3","ParticipantNum","InducerL","InducerR","ConcurrentL","ConcurrentR","choice","DataSet"
0,1,9226,"0BwAB3cQny","Noise-Shape-Speed-10","Noise","Shape","Speed","10","Affect-EB-H","Affect-EB-L","Noise-Piano-H","Noise-Piano-L",1,"Pilot"
1,2,7482,"0BwAB3cQny","Noise-Shape-Speed-10","Noise","Shape","Speed","10","Noise-Hum-L","Noise-Hum-H","Speed-SP3-L","Speed-SP3-H",1,"Pilot"
2,3,6335,"0BwAB3cQny","Noise-Shape-Speed-10","Noise","Shape","Speed","10","Brightness-Squares-L","Brightness-Squares-H","Speed-SP2-H","Speed-SP2-L",1,"Pilot"
3,4,6459,"0BwAB3cQny","Noise-Shape-Speed-10","Noise","Shape","Speed","10","Amp-Pulse-L","Amp-Pulse-H","Speed-SP3-H","Speed-SP3-L",1,"Pilot"
4,5,6483,"0BwAB3cQny","Noise-Shape-Speed-10","Noise","Shape","Speed","10","Noise-Hum-H","Noise-Hum-L","Speed-SP2-L","Speed-SP2-H",1,"Pilot"
5,6,8374,"0BwAB3cQny","Noise-Shape-Speed-10","Noise","Shape","Speed","10","Noise-Pulse-L","Noise-Pulse-H","Pitch-Piano-L","Pitch-Piano-H",0,"Pilot"
6,7,3768,"0BwAB3cQny","Noise-Shape-Speed-10","Noise","Shape","Speed","10","Brightness-Squares-L","Brightness-Squares-H","Speed-SP3-H","Speed-SP3-L",1,"Pilot"
7,8,5369,"0BwAB3cQny","Noise-Shape-Speed-10","Noise","Shape","Speed","10","Brightness-Squares-H","Brightness-Squares-L","Shape-BK2-L","Shape-BK2-H",0,"Pilot"
8,9,4081,"0BwAB3cQny","Noise-Shape-Speed-10","Noise","Shape","Speed","10","Shape-BK1-H","Shape-BK1-L","Brightness-Squares-L","Brightness-Squares-H",0,"Pilot"
9,10,5043,"0BwAB3cQny","Noise-Shape-Speed-10","Noise","Shape","Speed","10","Amp-Pulse-L","Amp-Pulse-H","Shape-BK2-H","Shape-BK2-L",1,"Pilot"
10,11,6608,"0BwAB3cQny","Noise-Shape-Speed-10","Noise","Shape","Speed","10","Color-RY-L","Color-RY-H","Noise-Piano-H","Noise-Piano-L",1,"Pilot"
11,12,13163,"0BwAB3cQny","Noise-Shape-Speed-10","Noise","Shape","Speed","10","Pitch-Piano-H","Pitch-Piano-L","Noise-Piano-L","Noise-Piano-H",1,"Pilot"
12,13,3347,"0BwAB3cQny","Noise-Shape-Speed-10","Noise","Shape","Speed","10","Color-RY-H","Color-RY-L","Shape-BK4-H","Shape-BK4-L",1,"Pilot"
13,14,8478,"0BwAB3cQny","Noise-Shape-Speed-10","Noise","Shape","Speed","10","Amp-Pulse-L","Amp-Pulse-H","Noise-Tone-H","Noise-Tone-L",0,"Pilot"
14,15,6308,"0BwAB3cQny","Noise-Shape-Speed-10","Noise","Shape","Speed","10","Speed-SP4-H","Speed-SP4-L","Pitch-Piano-L","Pitch-Piano-H",0,"Pilot"
15,16,5375,"0BwAB3cQny","Noise-Shape-Speed-10","Noise","Shape","Speed","10","Speed-SP1-H","Speed-SP1-L","Noise-Piano-L","Noise-Piano-H",0,"Pilot"
16,17,4724,"0BwAB3cQny","Noise-Shape-Speed-10","Noise","Shape","Speed","10","Color-RY-H","Color-RY-L","Speed-SP2-L","Speed-SP2-H",0,"Pilot"
17,18,6070,"0BwAB3cQny","Noise-Shape-Speed-10","Noise","Shape","Speed","10","Shape-BK3-H","Shape-BK3-L","Noise-Piano-L","Noise-Piano-H",0,"Pilot"
18,19,4967,"0BwAB3cQny","Noise-Shape-Speed-10","Noise","Shape","Speed","10","Noise-Pulse-L","Noise-Pulse-H","Brightness-Squares-H","Brightness-Squares-L",0,"Pilot"
19,20,5892,"0BwAB3cQny","Noise-Shape-Speed-10","Noise","Shape","Speed","10","Size-Triangles-L","Size-Triangles-H","Shape-BK4-H","Shape-BK4-L",0,"Pilot"
20,21,3310,"0BwAB3cQny","Noise-Shape-Speed-10","Noise","Shape","Speed","10","Brightness-Squares-H","Brightness-Squares-L","Shape-BK4-L","Shape-BK4-H",0,"Pilot"
21,22,4102,"0BwAB3cQny","Noise-Shape-Speed-10","Noise","Shape","Speed","10","Shape-BK3-L","Shape-BK3-H","Noise-Tone-L","Noise-Tone-H",0,"Pilot"
22,23,6944,"0BwAB3cQny","Noise-Shape-Speed-10","Noise","Shape","Speed","10","Noise-Hum-H","Noise-Hum-L","Shape-BK4-L","Shape-BK4-H",0,"Pilot"
23,24,4103,"0BwAB3cQny","Noise-Shape-Speed-10","Noise","Shape","Speed","10","Noise-Pulse-H","Noise-Pulse-L","Color-RY-H","Color-RY-L",1,"Pilot"
24,25,5033,"0BwAB3cQny","Noise-Shape-Speed-10","Noise","Shape","Speed","10","Size-Triangles-L","Size-Triangles-H","Noise-Piano-H","Noise-Piano-L",0,"Pilot"
25,26,5652,"0BwAB3cQny","Noise-Shape-Speed-10","Noise","Shape","Speed","10","Noise-Hum-L","Noise-Hum-H","Affect-EB-L","Affect-EB-H",1,"Pilot"
26,27,4996,"0BwAB3cQny","Noise-Shape-Speed-10","Noise","Shape","Speed","10","Speed-SP4-L","Speed-SP4-H","Shape-BK3-H","Shape-BK3-L",1,"Pilot"
27,28,4306,"0BwAB3cQny","Noise-Shape-Speed-10","Noise","Shape","Speed","10","Affect-EB-H","Affect-EB-L","Speed-SP2-H","Speed-SP2-L",0,"Pilot"
28,29,6073,"0BwAB3cQny","Noise-Shape-Speed-10","Noise","Shape","Speed","10","Size-Triangles-L","Size-Triangles-H","Speed-SP2-L","Speed-SP2-H",1,"Pilot"
29,30,6378,"0BwAB3cQny","Noise-Shape-Speed-10","Noise","Shape","Speed","10","Pitch-Piano-H","Pitch-Piano-L","Noise-Tone-L","Noise-Tone-H",1,"Pilot"
30,31,4531,"0BwAB3cQny","Noise-Shape-Speed-10","Noise","Shape","Speed","10","Speed-SP1-H","Speed-SP1-L","Shape-BK3-L","Shape-BK3-H",0,"Pilot"
31,32,6153,"0BwAB3cQny","Noise-Shape-Speed-10","Noise","Shape","Speed","10","Amp-Pulse-L","Amp-Pulse-H","Speed-SP2-H","Speed-SP2-L",1,"Pilot"
32,33,3305,"0BwAB3cQny","Noise-Shape-Speed-10","Noise","Shape","Speed","10","Shape-BK3-L","Shape-BK3-H","Brightness-Squares-L","Brightness-Squares-H",1,"Pilot"
33,34,3813,"0BwAB3cQny","Noise-Shape-Speed-10","Noise","Shape","Speed","10","Shape-BK3-L","Shape-BK3-H","Noise-Hum-L","Noise-Hum-H",0,"Pilot"
34,35,7292,"0BwAB3cQny","Noise-Shape-Speed-10","Noise","Shape","Speed","10","Noise-Hum-L","Noise-Hum-H","Shape-BK2-L","Shape-BK2-H",0,"Pilot"
35,36,5316,"0BwAB3cQny","Noise-Shape-Speed-10","Noise","Shape","Speed","10","Shape-BK1-H","Shape-BK1-L","Pitch-Piano-L","Pitch-Piano-H",1,"Pilot"
36,37,4766,"0BwAB3cQny","Noise-Shape-Speed-10","Noise","Shape","Speed","10","Shape-BK1-L","Shape-BK1-H","Color-RY-L","Color-RY-H",0,"Pilot"
37,38,3645,"0BwAB3cQny","Noise-Shape-Speed-10","Noise","Shape","Speed","10","Shape-BK3-H","Shape-BK3-L","Affect-EB-H","Affect-EB-L",1,"Pilot"
38,39,4374,"0BwAB3cQny","Noise-Shape-Speed-10","Noise","Shape","Speed","10","Speed-SP4-L","Speed-SP4-H","Affect-EB-L","Affect-EB-H",0,"Pilot"
39,40,4368,"0BwAB3cQny","Noise-Shape-Speed-10","Noise","Shape","Speed","10","Speed-SP1-L","Speed-SP1-H","Shape-BK4-L","Shape-BK4-H",0,"Pilot"
40,41,3636,"0BwAB3cQny","Noise-Shape-Speed-10","Noise","Shape","Speed","10","Shape-BK1-L","Shape-BK1-H","Affect-EB-H","Affect-EB-L",0,"Pilot"
41,42,4142,"0BwAB3cQny","Noise-Shape-Speed-10","Noise","Shape","Speed","10","Brightness-Squares-L","Brightness-Squares-H","Noise-Tone-L","Noise-Tone-H",1,"Pilot"
42,43,4635,"0BwAB3cQny","Noise-Shape-Speed-10","Noise","Shape","Speed","10","Speed-SP1-L","Speed-SP1-H","Color-RY-L","Color-RY-H",1,"Pilot"
43,44,5054,"0BwAB3cQny","Noise-Shape-Speed-10","Noise","Shape","Speed","10","Speed-SP1-H","Speed-SP1-L","Brightness-Squares-H","Brightness-Squares-L",0,"Pilot"
44,45,3136,"0BwAB3cQny","Noise-Shape-Speed-10","Noise","Shape","Speed","10","Affect-EB-L","Affect-EB-H","Speed-SP3-H","Speed-SP3-L",1,"Pilot"
45,46,4110,"0BwAB3cQny","Noise-Shape-Speed-10","Noise","Shape","Speed","10","Pitch-Piano-H","Pitch-Piano-L","Speed-SP3-L","Speed-SP3-H",0,"Pilot"
46,47,3034,"0BwAB3cQny","Noise-Shape-Speed-10","Noise","Shape","Speed","10","Speed-SP4-L","Speed-SP4-H","Brightness-Squares-H","Brightness-Squares-L",1,"Pilot"
47,48,4477,"0BwAB3cQny","Noise-Shape-Speed-10","Noise","Shape","Speed","10","Noise-Hum-L","Noise-Hum-H","Color-RY-H","Color-RY-L",1,"Pilot"
48,49,4446,"0BwAB3cQny","Noise-Shape-Speed-10","Noise","Shape","Speed","10","Shape-BK1-L","Shape-BK1-H","Amp-Pulse-L","Amp-Pulse-H",0,"Pilot"
49,50,2646,"0BwAB3cQny","Noise-Shape-Speed-10","Noise","Shape","Speed","10","Color-RY-L","Color-RY-H","Speed-SP3-L","Speed-SP3-H",1,"Pilot"
50,51,3220,"0BwAB3cQny","Noise-Shape-Speed-10","Noise","Shape","Speed","10","Speed-SP4-L","Speed-SP4-H","Amp-Pulse-L","Amp-Pulse-H",0,"Pilot"
51,52,3979,"0BwAB3cQny","Noise-Shape-Speed-10","Noise","Shape","Speed","10","Shape-BK1-H","Shape-BK1-L","Noise-Hum-L","Noise-Hum-H",1,"Pilot"
52,53,4279,"0BwAB3cQny","Noise-Shape-Speed-10","Noise","Shape","Speed","10","Pitch-Piano-L","Pitch-Piano-H","Shape-BK4-L","Shape-BK4-H",0,"Pilot"
53,54,3598,"0BwAB3cQny","Noise-Shape-Speed-10","Noise","Shape","Speed","10","Shape-BK3-L","Shape-BK3-H","Pitch-Piano-L","Pitch-Piano-H",0,"Pilot"
54,55,3967,"0BwAB3cQny","Noise-Shape-Speed-10","Noise","Shape","Speed","10","Shape-BK3-H","Shape-BK3-L","Speed-SP3-H","Speed-SP3-L",0,"Pilot"
55,56,4399,"0BwAB3cQny","Noise-Shape-Speed-10","Noise","Shape","Speed","10","Shape-BK3-H","Shape-BK3-L","Amp-Pulse-H","Amp-Pulse-L",1,"Pilot"
56,57,3620,"0BwAB3cQny","Noise-Shape-Speed-10","Noise","Shape","Speed","10","Color-RY-H","Color-RY-L","Shape-BK2-H","Shape-BK2-L",0,"Pilot"
57,58,4551,"0BwAB3cQny","Noise-Shape-Speed-10","Noise","Shape","Speed","10","Shape-BK1-H","Shape-BK1-L","Speed-SP1-L","Speed-SP1-H",1,"Pilot"
58,59,7125,"0BwAB3cQny","Noise-Shape-Speed-10","Noise","Shape","Speed","10","Noise-Pulse-H","Noise-Pulse-L","Amp-Pulse-H","Amp-Pulse-L",1,"Pilot"
59,60,4592,"0BwAB3cQny","Noise-Shape-Speed-10","Noise","Shape","Speed","10","Speed-SP1-H","Speed-SP1-L","Noise-Tone-L","Noise-Tone-H",0,"Pilot"
60,61,3835,"0BwAB3cQny","Noise-Shape-Speed-10","Noise","Shape","Speed","10","Noise-Pulse-L","Noise-Pulse-H","Shape-BK3-L","Shape-BK3-H",0,"Pilot"
61,62,3831,"0BwAB3cQny","Noise-Shape-Speed-10","Noise","Shape","Speed","10","Amp-Pulse-H","Amp-Pulse-L","Shape-BK4-H","Shape-BK4-L",1,"Pilot"
62,63,2990,"0BwAB3cQny","Noise-Shape-Speed-10","Noise","Shape","Speed","10","Shape-BK3-H","Shape-BK3-L","Color-RY-H","Color-RY-L",0,"Pilot"
63,64,4748,"0BwAB3cQny","Noise-Shape-Speed-10","Noise","Shape","Speed","10","Noise-Pulse-H","Noise-Pulse-L","Affect-EB-H","Affect-EB-L",1,"Pilot"
64,65,3118,"0BwAB3cQny","Noise-Shape-Speed-10","Noise","Shape","Speed","10","Size-Triangles-H","Size-Triangles-L","Speed-SP3-L","Speed-SP3-H",1,"Pilot"
65,66,5105,"0BwAB3cQny","Noise-Shape-Speed-10","Noise","Shape","Speed","10","Noise-Hum-H","Noise-Hum-L","Brightness-Squares-L","Brightness-Squares-H",0,"Pilot"
66,67,3745,"0BwAB3cQny","Noise-Shape-Speed-10","Noise","Shape","Speed","10","Shape-BK3-H","Shape-BK3-L","Speed-SP2-H","Speed-SP2-L",1,"Pilot"
67,68,4267,"0BwAB3cQny","Noise-Shape-Speed-10","Noise","Shape","Speed","10","Pitch-Piano-H","Pitch-Piano-L","Shape-BK2-L","Shape-BK2-H",1,"Pilot"
68,69,5038,"0BwAB3cQny","Noise-Shape-Speed-10","Noise","Shape","Speed","10","Speed-SP1-L","Speed-SP1-H","Pitch-Piano-L","Pitch-Piano-H",1,"Pilot"
69,70,4068,"0BwAB3cQny","Noise-Shape-Speed-10","Noise","Shape","Speed","10","Speed-SP1-L","Speed-SP1-H","Noise-Hum-L","Noise-Hum-H",1,"Pilot"
70,71,4830,"0BwAB3cQny","Noise-Shape-Speed-10","Noise","Shape","Speed","10","Speed-SP1-H","Speed-SP1-L","Shape-BK2-L","Shape-BK2-H",0,"Pilot"
71,72,3603,"0BwAB3cQny","Noise-Shape-Speed-10","Noise","Shape","Speed","10","Affect-EB-L","Affect-EB-H","Shape-BK4-H","Shape-BK4-L",0,"Pilot"
72,73,7115,"0BwAB3cQny","Noise-Shape-Speed-10","Noise","Shape","Speed","10","Noise-Pulse-L","Noise-Pulse-H","Speed-SP1-L","Speed-SP1-H",1,"Pilot"
73,74,4761,"0BwAB3cQny","Noise-Shape-Speed-10","Noise","Shape","Speed","10","Affect-EB-L","Affect-EB-H","Shape-BK2-H","Shape-BK2-L",0,"Pilot"
74,75,4132,"0BwAB3cQny","Noise-Shape-Speed-10","Noise","Shape","Speed","10","Noise-Hum-H","Noise-Hum-L","Speed-SP1-H","Speed-SP1-L",1,"Pilot"
75,76,3962,"0BwAB3cQny","Noise-Shape-Speed-10","Noise","Shape","Speed","10","Noise-Hum-L","Noise-Hum-H","Size-Triangles-H","Size-Triangles-L",0,"Pilot"
76,77,5122,"0BwAB3cQny","Noise-Shape-Speed-10","Noise","Shape","Speed","10","Speed-SP1-H","Speed-SP1-L","Amp-Pulse-H","Amp-Pulse-L",0,"Pilot"
77,78,4801,"0BwAB3cQny","Noise-Shape-Speed-10","Noise","Shape","Speed","10","Speed-SP1-L","Speed-SP1-H","Size-Triangles-L","Size-Triangles-H",0,"Pilot"
78,79,3190,"0BwAB3cQny","Noise-Shape-Speed-10","Noise","Shape","Speed","10","Size-Triangles-L","Size-Triangles-H","Noise-Tone-H","Noise-Tone-L",0,"Pilot"
79,80,3907,"0BwAB3cQny","Noise-Shape-Speed-10","Noise","Shape","Speed","10","Shape-BK3-H","Shape-BK3-L","Size-Triangles-H","Size-Triangles-L",1,"Pilot"
80,81,10767,"0BwAB3cQny","Noise-Shape-Speed-10","Noise","Shape","Speed","10","Brightness-Squares-L","Brightness-Squares-H","Noise-Piano-L","Noise-Piano-H",1,"Pilot"
81,82,4304,"0BwAB3cQny","Noise-Shape-Speed-10","Noise","Shape","Speed","10","Noise-Pulse-H","Noise-Pulse-L","Size-Triangles-L","Size-Triangles-H",0,"Pilot"
82,83,2987,"0BwAB3cQny","Noise-Shape-Speed-10","Noise","Shape","Speed","10","Size-Triangles-H","Size-Triangles-L","Shape-BK2-H","Shape-BK2-L",1,"Pilot"
83,84,7155,"0BwAB3cQny","Noise-Shape-Speed-10","Noise","Shape","Speed","10","Noise-Hum-H","Noise-Hum-L","Pitch-Piano-H","Pitch-Piano-L",0,"Pilot"
84,85,2905,"0BwAB3cQny","Noise-Shape-Speed-10","Noise","Shape","Speed","10","Shape-BK3-L","Shape-BK3-H","Speed-SP1-H","Speed-SP1-L",1,"Pilot"
85,86,3477,"0BwAB3cQny","Noise-Shape-Speed-10","Noise","Shape","Speed","10","Speed-SP1-H","Speed-SP1-L","Affect-EB-H","Affect-EB-L",0,"Pilot"
86,87,2244,"0BwAB3cQny","Noise-Shape-Speed-10","Noise","Shape","Speed","10","Speed-SP4-H","Speed-SP4-L","Color-RY-H","Color-RY-L",1,"Pilot"
87,88,4047,"0BwAB3cQny","Noise-Shape-Speed-10","Noise","Shape","Speed","10","Noise-Hum-H","Noise-Hum-L","Shape-BK3-H","Shape-BK3-L",0,"Pilot"
88,89,3955,"0BwAB3cQny","Noise-Shape-Speed-10","Noise","Shape","Speed","10","Color-RY-H","Color-RY-L","Noise-Tone-H","Noise-Tone-L",0,"Pilot"
89,90,5420,"0BwAB3cQny","Noise-Shape-Speed-10","Noise","Shape","Speed","10","Amp-Pulse-L","Amp-Pulse-H","Noise-Piano-H","Noise-Piano-L",0,"Pilot"
90,91,3874,"0BwAB3cQny","Noise-Shape-Speed-10","Noise","Shape","Speed","10","Affect-EB-H","Affect-EB-L","Noise-Tone-H","Noise-Tone-L",1,"Pilot"
91,92,3506,"0BwAB3cQny","Noise-Shape-Speed-10","Noise","Shape","Speed","10","Speed-SP4-H","Speed-SP4-L","Size-Triangles-H","Size-Triangles-L",0,"Pilot"
92,93,3569,"0BwAB3cQny","Noise-Shape-Speed-10","Noise","Shape","Speed","10","Speed-SP4-H","Speed-SP4-L","Noise-Hum-H","Noise-Hum-L",1,"Pilot"
93,94,5289,"0BwAB3cQny","Noise-Shape-Speed-10","Noise","Shape","Speed","10","Noise-Hum-L","Noise-Hum-H","Amp-Pulse-L","Amp-Pulse-H",1,"Pilot"
94,95,4540,"0BwAB3cQny","Noise-Shape-Speed-10","Noise","Shape","Speed","10","Pitch-Piano-L","Pitch-Piano-H","Speed-SP2-L","Speed-SP2-H",1,"Pilot"
95,96,3400,"0BwAB3cQny","Noise-Shape-Speed-10","Noise","Shape","Speed","10","Shape-BK1-L","Shape-BK1-H","Size-Triangles-H","Size-Triangles-L",0,"Pilot"
0,1,4844,"2fgfNXCWoW","Pitch-Size-Color-9","Pitch","Size","Color","9","Color-YB-L","Color-YB-H","Noise-Hum-L","Noise-Hum-H",1,"Pilot"
1,2,3273,"2fgfNXCWoW","Pitch-Size-Color-9","Pitch","Size","Color","9","Shape-BK2-L","Shape-BK2-H","Color-RB-L","Color-RB-H",1,"Pilot"
2,3,5587,"2fgfNXCWoW","Pitch-Size-Color-9","Pitch","Size","Color","9","Pitch-Hum-H","Pitch-Hum-L","Noise-Hum-L","Noise-Hum-H",1,"Pilot"
3,4,3369,"2fgfNXCWoW","Pitch-Size-Color-9","Pitch","Size","Color","9","Size-Squares-L","Size-Squares-H","Brightness-Triangles-L","Brightness-Triangles-H",0,"Pilot"
4,5,3926,"2fgfNXCWoW","Pitch-Size-Color-9","Pitch","Size","Color","9","Brightness-Triangles-H","Brightness-Triangles-L","Pitch-Pulse-H","Pitch-Pulse-L",1,"Pilot"
5,6,3562,"2fgfNXCWoW","Pitch-Size-Color-9","Pitch","Size","Color","9","Speed-SP4-L","Speed-SP4-H","Color-RY-L","Color-RY-H",0,"Pilot"
6,7,3924,"2fgfNXCWoW","Pitch-Size-Color-9","Pitch","Size","Color","9","Size-Squares-H","Size-Squares-L","Amp-Tone-H","Amp-Tone-L",0,"Pilot"
7,8,5651,"2fgfNXCWoW","Pitch-Size-Color-9","Pitch","Size","Color","9","Noise-Hum-L","Noise-Hum-H","Pitch-Tone-H","Pitch-Tone-L",1,"Pilot"
8,9,2170,"2fgfNXCWoW","Pitch-Size-Color-9","Pitch","Size","Color","9","Size-Diamonds-H","Size-Diamonds-L","Color-RY-L","Color-RY-H",0,"Pilot"
9,10,5177,"2fgfNXCWoW","Pitch-Size-Color-9","Pitch","Size","Color","9","Pitch-Hum-L","Pitch-Hum-H","Brightness-Triangles-L","Brightness-Triangles-H",1,"Pilot"
10,11,7778,"2fgfNXCWoW","Pitch-Size-Color-9","Pitch","Size","Color","9","Pitch-Piano-H","Pitch-Piano-L","Noise-Hum-H","Noise-Hum-L",0,"Pilot"
11,12,2847,"2fgfNXCWoW","Pitch-Size-Color-9","Pitch","Size","Color","9","Speed-SP4-L","Speed-SP4-H","Size-Circles-L","Size-Circles-H",1,"Pilot"
12,13,4017,"2fgfNXCWoW","Pitch-Size-Color-9","Pitch","Size","Color","9","Affect-EB-L","Affect-EB-H","Color-RY-H","Color-RY-L",1,"Pilot"
13,14,4472,"2fgfNXCWoW","Pitch-Size-Color-9","Pitch","Size","Color","9","Affect-EB-L","Affect-EB-H","Color-RB-L","Color-RB-H",0,"Pilot"
14,15,2985,"2fgfNXCWoW","Pitch-Size-Color-9","Pitch","Size","Color","9","Size-Squares-H","Size-Squares-L","Color-RY-L","Color-RY-H",1,"Pilot"
15,16,5278,"2fgfNXCWoW","Pitch-Size-Color-9","Pitch","Size","Color","9","Pitch-Piano-L","Pitch-Piano-H","Brightness-Triangles-H","Brightness-Triangles-L",0,"Pilot"
16,17,2585,"2fgfNXCWoW","Pitch-Size-Color-9","Pitch","Size","Color","9","Shape-BK2-L","Shape-BK2-H","Size-Circles-H","Size-Circles-L",1,"Pilot"
17,18,2712,"2fgfNXCWoW","Pitch-Size-Color-9","Pitch","Size","Color","9","Brightness-Triangles-H","Brightness-Triangles-L","Size-Circles-L","Size-Circles-H",1,"Pilot"
18,19,1953,"2fgfNXCWoW","Pitch-Size-Color-9","Pitch","Size","Color","9","Size-Diamonds-L","Size-Diamonds-H","Brightness-Triangles-H","Brightness-Triangles-L",1,"Pilot"
19,20,2121,"2fgfNXCWoW","Pitch-Size-Color-9","Pitch","Size","Color","9","Color-YB-H","Color-YB-L","Brightness-Triangles-H","Brightness-Triangles-L",0,"Pilot"
20,21,1791,"2fgfNXCWoW","Pitch-Size-Color-9","Pitch","Size","Color","9","Color-RY-H","Color-RY-L","Size-Triangles-L","Size-Triangles-H",1,"Pilot"
21,22,6628,"2fgfNXCWoW","Pitch-Size-Color-9","Pitch","Size","Color","9","Size-Squares-L","Size-Squares-H","Noise-Hum-H","Noise-Hum-L",1,"Pilot"
22,23,3033,"2fgfNXCWoW","Pitch-Size-Color-9","Pitch","Size","Color","9","Speed-SP4-H","Speed-SP4-L","Size-Triangles-H","Size-Triangles-L",1,"Pilot"
23,24,3883,"2fgfNXCWoW","Pitch-Size-Color-9","Pitch","Size","Color","9","Size-Diamonds-H","Size-Diamonds-L","Affect-EB-L","Affect-EB-H",1,"Pilot"
24,25,4732,"2fgfNXCWoW","Pitch-Size-Color-9","Pitch","Size","Color","9","Noise-Hum-H","Noise-Hum-L","Color-RB-H","Color-RB-L",1,"Pilot"
25,26,6893,"2fgfNXCWoW","Pitch-Size-Color-9","Pitch","Size","Color","9","Pitch-Piano-L","Pitch-Piano-H","Shape-BK2-L","Shape-BK2-H",0,"Pilot"
26,27,2025,"2fgfNXCWoW","Pitch-Size-Color-9","Pitch","Size","Color","9","Brightness-Triangles-L","Brightness-Triangles-H","Size-Triangles-H","Size-Triangles-L",1,"Pilot"
27,28,5496,"2fgfNXCWoW","Pitch-Size-Color-9","Pitch","Size","Color","9","Pitch-Hum-L","Pitch-Hum-H","Amp-Tone-L","Amp-Tone-H",1,"Pilot"
28,29,2705,"2fgfNXCWoW","Pitch-Size-Color-9","Pitch","Size","Color","9","Color-RG-L","Color-RG-H","Speed-SP4-H","Speed-SP4-L",1,"Pilot"
29,30,4221,"2fgfNXCWoW","Pitch-Size-Color-9","Pitch","Size","Color","9","Amp-Tone-H","Amp-Tone-L","Color-RB-L","Color-RB-H",1,"Pilot"
30,31,3336,"2fgfNXCWoW","Pitch-Size-Color-9","Pitch","Size","Color","9","Size-Squares-H","Size-Squares-L","Shape-BK2-L","Shape-BK2-H",1,"Pilot"
31,32,3697,"2fgfNXCWoW","Pitch-Size-Color-9","Pitch","Size","Color","9","Size-Squares-H","Size-Squares-L","Affect-EB-H","Affect-EB-L",0,"Pilot"
32,33,3967,"2fgfNXCWoW","Pitch-Size-Color-9","Pitch","Size","Color","9","Noise-Hum-H","Noise-Hum-L","Size-Triangles-H","Size-Triangles-L",0,"Pilot"
33,34,4430,"2fgfNXCWoW","Pitch-Size-Color-9","Pitch","Size","Color","9","Affect-EB-H","Affect-EB-L","Pitch-Pulse-L","Pitch-Pulse-H",1,"Pilot"
34,35,4556,"2fgfNXCWoW","Pitch-Size-Color-9","Pitch","Size","Color","9","Pitch-Hum-L","Pitch-Hum-H","Speed-SP4-L","Speed-SP4-H",1,"Pilot"
35,36,3297,"2fgfNXCWoW","Pitch-Size-Color-9","Pitch","Size","Color","9","Color-RG-L","Color-RG-H","Size-Squares-L","Size-Squares-H",1,"Pilot"
36,37,4565,"2fgfNXCWoW","Pitch-Size-Color-9","Pitch","Size","Color","9","Brightness-Triangles-L","Brightness-Triangles-H","Pitch-Tone-L","Pitch-Tone-H",0,"Pilot"
37,38,4134,"2fgfNXCWoW","Pitch-Size-Color-9","Pitch","Size","Color","9","Pitch-Hum-H","Pitch-Hum-L","Size-Squares-H","Size-Squares-L",1,"Pilot"
38,39,4153,"2fgfNXCWoW","Pitch-Size-Color-9","Pitch","Size","Color","9","Brightness-Triangles-L","Brightness-Triangles-H","Color-RB-L","Color-RB-H",0,"Pilot"
39,40,3713,"2fgfNXCWoW","Pitch-Size-Color-9","Pitch","Size","Color","9","Color-YB-H","Color-YB-L","Affect-EB-L","Affect-EB-H",0,"Pilot"
40,41,3337,"2fgfNXCWoW","Pitch-Size-Color-9","Pitch","Size","Color","9","Speed-SP4-H","Speed-SP4-L","Color-RB-H","Color-RB-L",0,"Pilot"
41,42,1914,"2fgfNXCWoW","Pitch-Size-Color-9","Pitch","Size","Color","9","Color-YB-H","Color-YB-L","Shape-BK2-L","Shape-BK2-H",1,"Pilot"
42,43,5076,"2fgfNXCWoW","Pitch-Size-Color-9","Pitch","Size","Color","9","Color-RG-L","Color-RG-H","Pitch-Pulse-H","Pitch-Pulse-L",0,"Pilot"
43,44,3789,"2fgfNXCWoW","Pitch-Size-Color-9","Pitch","Size","Color","9","Color-RY-L","Color-RY-H","Pitch-Pulse-L","Pitch-Pulse-H",0,"Pilot"
44,45,5060,"2fgfNXCWoW","Pitch-Size-Color-9","Pitch","Size","Color","9","Size-Squares-L","Size-Squares-H","Pitch-Pulse-L","Pitch-Pulse-H",1,"Pilot"
45,46,4278,"2fgfNXCWoW","Pitch-Size-Color-9","Pitch","Size","Color","9","Affect-EB-L","Affect-EB-H","Pitch-Tone-H","Pitch-Tone-L",0,"Pilot"
46,47,4686,"2fgfNXCWoW","Pitch-Size-Color-9","Pitch","Size","Color","9","Pitch-Piano-H","Pitch-Piano-L","Affect-EB-L","Affect-EB-H",0,"Pilot"
47,48,4271,"2fgfNXCWoW","Pitch-Size-Color-9","Pitch","Size","Color","9","Shape-BK2-H","Shape-BK2-L","Pitch-Tone-L","Pitch-Tone-H",1,"Pilot"
48,49,5576,"2fgfNXCWoW","Pitch-Size-Color-9","Pitch","Size","Color","9","Noise-Hum-L","Noise-Hum-H","Pitch-Pulse-L","Pitch-Pulse-H",1,"Pilot"
49,50,3074,"2fgfNXCWoW","Pitch-Size-Color-9","Pitch","Size","Color","9","Shape-BK2-L","Shape-BK2-H","Size-Triangles-L","Size-Triangles-H",0,"Pilot"
50,51,3935,"2fgfNXCWoW","Pitch-Size-Color-9","Pitch","Size","Color","9","Noise-Hum-H","Noise-Hum-L","Color-RY-L","Color-RY-H",0,"Pilot"
51,52,4477,"2fgfNXCWoW","Pitch-Size-Color-9","Pitch","Size","Color","9","Pitch-Pulse-L","Pitch-Pulse-H","Size-Triangles-H","Size-Triangles-L",0,"Pilot"
52,53,3693,"2fgfNXCWoW","Pitch-Size-Color-9","Pitch","Size","Color","9","Amp-Tone-H","Amp-Tone-L","Size-Circles-H","Size-Circles-L",0,"Pilot"
53,54,3254,"2fgfNXCWoW","Pitch-Size-Color-9","Pitch","Size","Color","9","Amp-Tone-L","Amp-Tone-H","Size-Triangles-L","Size-Triangles-H",0,"Pilot"
54,55,2992,"2fgfNXCWoW","Pitch-Size-Color-9","Pitch","Size","Color","9","Size-Squares-H","Size-Squares-L","Color-RB-H","Color-RB-L",1,"Pilot"
55,56,3813,"2fgfNXCWoW","Pitch-Size-Color-9","Pitch","Size","Color","9","Size-Diamonds-L","Size-Diamonds-H","Pitch-Pulse-H","Pitch-Pulse-L",0,"Pilot"
56,57,2073,"2fgfNXCWoW","Pitch-Size-Color-9","Pitch","Size","Color","9","Size-Squares-H","Size-Squares-L","Color-RY-L","Color-RY-H",1,"Pilot"
57,58,5632,"2fgfNXCWoW","Pitch-Size-Color-9","Pitch","Size","Color","9","Amp-Tone-H","Amp-Tone-L","Pitch-Pulse-H","Pitch-Pulse-L",1,"Pilot"
58,59,3748,"2fgfNXCWoW","Pitch-Size-Color-9","Pitch","Size","Color","9","Color-RG-H","Color-RG-L","Amp-Tone-H","Amp-Tone-L",0,"Pilot"
59,60,3894,"2fgfNXCWoW","Pitch-Size-Color-9","Pitch","Size","Color","9","Pitch-Pulse-H","Pitch-Pulse-L","Color-RB-H","Color-RB-L",0,"Pilot"
60,61,5766,"2fgfNXCWoW","Pitch-Size-Color-9","Pitch","Size","Color","9","Size-Diamonds-L","Size-Diamonds-H","Noise-Hum-L","Noise-Hum-H",0,"Pilot"
61,62,2039,"2fgfNXCWoW","Pitch-Size-Color-9","Pitch","Size","Color","9","Shape-BK2-H","Shape-BK2-L","Color-RY-H","Color-RY-L",0,"Pilot"
62,63,3425,"2fgfNXCWoW","Pitch-Size-Color-9","Pitch","Size","Color","9","Color-YB-L","Color-YB-H","Speed-SP4-L","Speed-SP4-H",0,"Pilot"
63,64,1824,"2fgfNXCWoW","Pitch-Size-Color-9","Pitch","Size","Color","9","Color-RG-H","Color-RG-L","Shape-BK2-L","Shape-BK2-H",1,"Pilot"
64,65,4735,"2fgfNXCWoW","Pitch-Size-Color-9","Pitch","Size","Color","9","Shape-BK2-H","Shape-BK2-L","Pitch-Pulse-H","Pitch-Pulse-L",1,"Pilot"
65,66,5553,"2fgfNXCWoW","Pitch-Size-Color-9","Pitch","Size","Color","9","Amp-Tone-L","Amp-Tone-H","Pitch-Tone-L","Pitch-Tone-H",0,"Pilot"
66,67,3551,"2fgfNXCWoW","Pitch-Size-Color-9","Pitch","Size","Color","9","Color-YB-H","Color-YB-L","Amp-Tone-H","Amp-Tone-L",1,"Pilot"
67,68,4691,"2fgfNXCWoW","Pitch-Size-Color-9","Pitch","Size","Color","9","Color-YB-L","Color-YB-H","Pitch-Pulse-H","Pitch-Pulse-L",1,"Pilot"
68,69,4062,"2fgfNXCWoW","Pitch-Size-Color-9","Pitch","Size","Color","9","Amp-Tone-H","Amp-Tone-L","Color-RY-H","Color-RY-L",0,"Pilot"
69,70,4702,"2fgfNXCWoW","Pitch-Size-Color-9","Pitch","Size","Color","9","Pitch-Hum-L","Pitch-Hum-H","Shape-BK2-L","Shape-BK2-H",0,"Pilot"
70,71,3367,"2fgfNXCWoW","Pitch-Size-Color-9","Pitch","Size","Color","9","Noise-Hum-L","Noise-Hum-H","Size-Circles-L","Size-Circles-H",0,"Pilot"
71,72,3331,"2fgfNXCWoW","Pitch-Size-Color-9","Pitch","Size","Color","9","Pitch-Piano-H","Pitch-Piano-L","Size-Squares-H","Size-Squares-L",0,"Pilot"
72,73,2809,"2fgfNXCWoW","Pitch-Size-Color-9","Pitch","Size","Color","9","Color-RG-H","Color-RG-L","Brightness-Triangles-H","Brightness-Triangles-L",0,"Pilot"
73,74,4210,"2fgfNXCWoW","Pitch-Size-Color-9","Pitch","Size","Color","9","Affect-EB-L","Affect-EB-H","Size-Circles-H","Size-Circles-L",1,"Pilot"
74,75,3651,"2fgfNXCWoW","Pitch-Size-Color-9","Pitch","Size","Color","9","Size-Squares-H","Size-Squares-L","Pitch-Tone-H","Pitch-Tone-L",1,"Pilot"
75,76,3842,"2fgfNXCWoW","Pitch-Size-Color-9","Pitch","Size","Color","9","Affect-EB-L","Affect-EB-H","Size-Triangles-L","Size-Triangles-H",0,"Pilot"
76,77,3462,"2fgfNXCWoW","Pitch-Size-Color-9","Pitch","Size","Color","9","Size-Diamonds-H","Size-Diamonds-L","Amp-Tone-H","Amp-Tone-L",0,"Pilot"
77,78,4025,"2fgfNXCWoW","Pitch-Size-Color-9","Pitch","Size","Color","9","Pitch-Pulse-H","Pitch-Pulse-L","Color-RY-L","Color-RY-H",0,"Pilot"
78,79,2034,"2fgfNXCWoW","Pitch-Size-Color-9","Pitch","Size","Color","9","Brightness-Triangles-L","Brightness-Triangles-H","Color-RY-H","Color-RY-L",1,"Pilot"
79,80,3701,"2fgfNXCWoW","Pitch-Size-Color-9","Pitch","Size","Color","9","Color-RG-L","Color-RG-H","Noise-Hum-L","Noise-Hum-H",0,"Pilot"
80,81,3861,"2fgfNXCWoW","Pitch-Size-Color-9","Pitch","Size","Color","9","Pitch-Pulse-H","Pitch-Pulse-L","Size-Circles-L","Size-Circles-H",0,"Pilot"
81,82,2482,"2fgfNXCWoW","Pitch-Size-Color-9","Pitch","Size","Color","9","Size-Diamonds-L","Size-Diamonds-H","Speed-SP4-H","Speed-SP4-L",0,"Pilot"
82,83,4103,"2fgfNXCWoW","Pitch-Size-Color-9","Pitch","Size","Color","9","Speed-SP4-L","Speed-SP4-H","Pitch-Tone-L","Pitch-Tone-H",0,"Pilot"
83,84,2128,"2fgfNXCWoW","Pitch-Size-Color-9","Pitch","Size","Color","9","Color-YB-L","Color-YB-H","Size-Squares-L","Size-Squares-H",1,"Pilot"
84,85,3621,"2fgfNXCWoW","Pitch-Size-Color-9","Pitch","Size","Color","9","Pitch-Hum-H","Pitch-Hum-L","Affect-EB-H","Affect-EB-L",1,"Pilot"
85,86,3630,"2fgfNXCWoW","Pitch-Size-Color-9","Pitch","Size","Color","9","Color-RY-H","Color-RY-L","Pitch-Tone-H","Pitch-Tone-L",1,"Pilot"
86,87,5132,"2fgfNXCWoW","Pitch-Size-Color-9","Pitch","Size","Color","9","Size-Squares-L","Size-Squares-H","Pitch-Pulse-L","Pitch-Pulse-H",1,"Pilot"
87,88,5595,"2fgfNXCWoW","Pitch-Size-Color-9","Pitch","Size","Color","9","Speed-SP4-L","Speed-SP4-H","Pitch-Pulse-H","Pitch-Pulse-L",0,"Pilot"
88,89,1541,"2fgfNXCWoW","Pitch-Size-Color-9","Pitch","Size","Color","9","Color-RY-H","Color-RY-L","Size-Circles-H","Size-Circles-L",0,"Pilot"
89,90,5638,"2fgfNXCWoW","Pitch-Size-Color-9","Pitch","Size","Color","9","Pitch-Piano-L","Pitch-Piano-H","Amp-Tone-L","Amp-Tone-H",0,"Pilot"
90,91,2296,"2fgfNXCWoW","Pitch-Size-Color-9","Pitch","Size","Color","9","Color-RG-H","Color-RG-L","Affect-EB-H","Affect-EB-L",1,"Pilot"
91,92,2937,"2fgfNXCWoW","Pitch-Size-Color-9","Pitch","Size","Color","9","Size-Diamonds-H","Size-Diamonds-L","Shape-BK2-H","Shape-BK2-L",1,"Pilot"
92,93,5565,"2fgfNXCWoW","Pitch-Size-Color-9","Pitch","Size","Color","9","Pitch-Hum-H","Pitch-Hum-L","Color-RY-H","Color-RY-L",0,"Pilot"
93,94,2481,"2fgfNXCWoW","Pitch-Size-Color-9","Pitch","Size","Color","9","Size-Squares-L","Size-Squares-H","Speed-SP4-H","Speed-SP4-L",0,"Pilot"
94,95,3687,"2fgfNXCWoW","Pitch-Size-Color-9","Pitch","Size","Color","9","Pitch-Piano-H","Pitch-Piano-L","Color-RY-L","Color-RY-H",1,"Pilot"
95,96,4478,"2fgfNXCWoW","Pitch-Size-Color-9","Pitch","Size","Color","9","Pitch-Piano-L","Pitch-Piano-H","Speed-SP4-H","Speed-SP4-L",0,"Pilot"
0,1,5001,"4EYlfayMb2","Brightness-Amp-Affect-9","Brightness","Amp","Affect","9","Affect-EB-L","Affect-EB-H","Shape-BK3-H","Shape-BK3-L",1,"Pilot"
1,2,8009,"4EYlfayMb2","Brightness-Amp-Affect-9","Brightness","Amp","Affect","9","Amp-Hum-L","Amp-Hum-H","Pitch-Tone-L","Pitch-Tone-H",0,"Pilot"
2,3,3981,"4EYlfayMb2","Brightness-Amp-Affect-9","Brightness","Amp","Affect","9","Brightness-Circles-L","Brightness-Circles-H","Affect-PD-H","Affect-PD-L",1,"Pilot"
3,4,5064,"4EYlfayMb2","Brightness-Amp-Affect-9","Brightness","Amp","Affect","9","Amp-Hum-H","Amp-Hum-L","Affect-EB-L","Affect-EB-H",1,"Pilot"
4,5,3829,"4EYlfayMb2","Brightness-Amp-Affect-9","Brightness","Amp","Affect","9","Color-RB-H","Color-RB-L","Brightness-Squares-L","Brightness-Squares-H",0,"Pilot"
5,6,7077,"4EYlfayMb2","Brightness-Amp-Affect-9","Brightness","Amp","Affect","9","Amp-Piano-H","Amp-Piano-L","Speed-SP2-H","Speed-SP2-L",0,"Pilot"
6,7,3758,"4EYlfayMb2","Brightness-Amp-Affect-9","Brightness","Amp","Affect","9","Color-RB-H","Color-RB-L","Brightness-Diamonds-H","Brightness-Diamonds-L",1,"Pilot"
7,8,4061,"4EYlfayMb2","Brightness-Amp-Affect-9","Brightness","Amp","Affect","9","Affect-HS-H","Affect-HS-L","Speed-SP2-H","Speed-SP2-L",0,"Pilot"
8,9,5732,"4EYlfayMb2","Brightness-Amp-Affect-9","Brightness","Amp","Affect","9","Affect-EB-L","Affect-EB-H","Amp-Hum-L","Amp-Hum-H",0,"Pilot"
9,10,4924,"4EYlfayMb2","Brightness-Amp-Affect-9","Brightness","Amp","Affect","9","Pitch-Tone-L","Pitch-Tone-H","Brightness-Squares-H","Brightness-Squares-L",1,"Pilot"
10,11,5669,"4EYlfayMb2","Brightness-Amp-Affect-9","Brightness","Amp","Affect","9","Color-RB-H","Color-RB-L","Amp-Tone-H","Amp-Tone-L",0,"Pilot"
11,12,4287,"4EYlfayMb2","Brightness-Amp-Affect-9","Brightness","Amp","Affect","9","Shape-BK3-L","Shape-BK3-H","Affect-SC-L","Affect-SC-H",0,"Pilot"
12,13,4686,"4EYlfayMb2","Brightness-Amp-Affect-9","Brightness","Amp","Affect","9","Amp-Hum-H","Amp-Hum-L","Size-Circles-H","Size-Circles-L",0,"Pilot"
13,14,3251,"4EYlfayMb2","Brightness-Amp-Affect-9","Brightness","Amp","Affect","9","Brightness-Triangles-H","Brightness-Triangles-L","Color-RB-H","Color-RB-L",0,"Pilot"
14,15,7663,"4EYlfayMb2","Brightness-Amp-Affect-9","Brightness","Amp","Affect","9","Pitch-Tone-L","Pitch-Tone-H","Amp-Tone-L","Amp-Tone-H",0,"Pilot"
15,16,8334,"4EYlfayMb2","Brightness-Amp-Affect-9","Brightness","Amp","Affect","9","Shape-BK3-L","Shape-BK3-H","Brightness-Squares-L","Brightness-Squares-H",0,"Pilot"
16,17,6559,"4EYlfayMb2","Brightness-Amp-Affect-9","Brightness","Amp","Affect","9","Affect-EB-H","Affect-EB-L","Noise-Hum-L","Noise-Hum-H",1,"Pilot"
17,18,5177,"4EYlfayMb2","Brightness-Amp-Affect-9","Brightness","Amp","Affect","9","Brightness-Circles-L","Brightness-Circles-H","Amp-Pulse-H","Amp-Pulse-L",1,"Pilot"
18,19,4046,"4EYlfayMb2","Brightness-Amp-Affect-9","Brightness","Amp","Affect","9","Brightness-Triangles-L","Brightness-Triangles-H","Speed-SP2-L","Speed-SP2-H",0,"Pilot"
19,20,3601,"4EYlfayMb2","Brightness-Amp-Affect-9","Brightness","Amp","Affect","9","Brightness-Triangles-H","Brightness-Triangles-L","Affect-EB-L","Affect-EB-H",1,"Pilot"
20,21,3885,"4EYlfayMb2","Brightness-Amp-Affect-9","Brightness","Amp","Affect","9","Affect-HS-L","Affect-HS-H","Color-RB-H","Color-RB-L",1,"Pilot"
21,22,3823,"4EYlfayMb2","Brightness-Amp-Affect-9","Brightness","Amp","Affect","9","Affect-EB-L","Affect-EB-H","Speed-SP2-H","Speed-SP2-L",1,"Pilot"
22,23,7667,"4EYlfayMb2","Brightness-Amp-Affect-9","Brightness","Amp","Affect","9","Brightness-Triangles-L","Brightness-Triangles-H","Noise-Hum-L","Noise-Hum-H",0,"Pilot"
23,24,3227,"4EYlfayMb2","Brightness-Amp-Affect-9","Brightness","Amp","Affect","9","Brightness-Triangles-H","Brightness-Triangles-L","Shape-BK3-H","Shape-BK3-L",0,"Pilot"
24,25,8959,"4EYlfayMb2","Brightness-Amp-Affect-9","Brightness","Amp","Affect","9","Brightness-Circles-H","Brightness-Circles-L","Speed-SP2-H","Speed-SP2-L",0,"Pilot"
25,26,2981,"4EYlfayMb2","Brightness-Amp-Affect-9","Brightness","Amp","Affect","9","Size-Circles-L","Size-Circles-H","Brightness-Diamonds-L","Brightness-Diamonds-H",0,"Pilot"
26,27,4072,"4EYlfayMb2","Brightness-Amp-Affect-9","Brightness","Amp","Affect","9","Affect-EB-L","Affect-EB-H","Brightness-Diamonds-H","Brightness-Diamonds-L",1,"Pilot"
27,28,4996,"4EYlfayMb2","Brightness-Amp-Affect-9","Brightness","Amp","Affect","9","Amp-Hum-L","Amp-Hum-H","Shape-BK3-L","Shape-BK3-H",0,"Pilot"
28,29,4268,"4EYlfayMb2","Brightness-Amp-Affect-9","Brightness","Amp","Affect","9","Shape-BK3-L","Shape-BK3-H","Affect-PD-H","Affect-PD-L",1,"Pilot"
29,30,6521,"4EYlfayMb2","Brightness-Amp-Affect-9","Brightness","Amp","Affect","9","Brightness-Circles-H","Brightness-Circles-L","Pitch-Tone-H","Pitch-Tone-L",0,"Pilot"
30,31,2971,"4EYlfayMb2","Brightness-Amp-Affect-9","Brightness","Amp","Affect","9","Affect-HS-L","Affect-HS-H","Size-Circles-L","Size-Circles-H",0,"Pilot"
31,32,5218,"4EYlfayMb2","Brightness-Amp-Affect-9","Brightness","Amp","Affect","9","Affect-HS-H","Affect-HS-L","Amp-Hum-L","Amp-Hum-H",1,"Pilot"
32,33,5904,"4EYlfayMb2","Brightness-Amp-Affect-9","Brightness","Amp","Affect","9","Affect-HS-H","Affect-HS-L","Shape-BK3-L","Shape-BK3-H",1,"Pilot"
33,34,5521,"4EYlfayMb2","Brightness-Amp-Affect-9","Brightness","Amp","Affect","9","Amp-Piano-L","Amp-Piano-H","Color-RB-L","Color-RB-H",0,"Pilot"
34,35,3155,"4EYlfayMb2","Brightness-Amp-Affect-9","Brightness","Amp","Affect","9","Size-Circles-L","Size-Circles-H","Affect-PD-L","Affect-PD-H",0,"Pilot"
35,36,6864,"4EYlfayMb2","Brightness-Amp-Affect-9","Brightness","Amp","Affect","9","Speed-SP2-H","Speed-SP2-L","Brightness-Diamonds-L","Brightness-Diamonds-H",1,"Pilot"
36,37,6901,"4EYlfayMb2","Brightness-Amp-Affect-9","Brightness","Amp","Affect","9","Speed-SP2-L","Speed-SP2-H","Brightness-Squares-H","Brightness-Squares-L",1,"Pilot"
37,38,4284,"4EYlfayMb2","Brightness-Amp-Affect-9","Brightness","Amp","Affect","9","Color-RB-H","Color-RB-L","Affect-SC-H","Affect-SC-L",0,"Pilot"
38,39,5592,"4EYlfayMb2","Brightness-Amp-Affect-9","Brightness","Amp","Affect","9","Brightness-Triangles-H","Brightness-Triangles-L","Amp-Hum-H","Amp-Hum-L",0,"Pilot"
39,40,8692,"4EYlfayMb2","Brightness-Amp-Affect-9","Brightness","Amp","Affect","9","Amp-Piano-L","Amp-Piano-H","Noise-Hum-H","Noise-Hum-L",1,"Pilot"
40,41,5067,"4EYlfayMb2","Brightness-Amp-Affect-9","Brightness","Amp","Affect","9","Amp-Hum-H","Amp-Hum-L","Color-RB-H","Color-RB-L",0,"Pilot"
41,42,4374,"4EYlfayMb2","Brightness-Amp-Affect-9","Brightness","Amp","Affect","9","Shape-BK3-L","Shape-BK3-H","Brightness-Diamonds-H","Brightness-Diamonds-L",1,"Pilot"
42,43,3713,"4EYlfayMb2","Brightness-Amp-Affect-9","Brightness","Amp","Affect","9","Affect-EB-H","Affect-EB-L","Brightness-Squares-L","Brightness-Squares-H",1,"Pilot"
43,44,4721,"4EYlfayMb2","Brightness-Amp-Affect-9","Brightness","Amp","Affect","9","Affect-EB-H","Affect-EB-L","Size-Circles-L","Size-Circles-H",1,"Pilot"
44,45,7037,"4EYlfayMb2","Brightness-Amp-Affect-9","Brightness","Amp","Affect","9","Amp-Hum-H","Amp-Hum-L","Affect-PD-H","Affect-PD-L",0,"Pilot"
45,46,5065,"4EYlfayMb2","Brightness-Amp-Affect-9","Brightness","Amp","Affect","9","Shape-BK3-L","Shape-BK3-H","Amp-Pulse-H","Amp-Pulse-L",1,"Pilot"
46,47,5961,"4EYlfayMb2","Brightness-Amp-Affect-9","Brightness","Amp","Affect","9","Size-Circles-L","Size-Circles-H","Affect-SC-H","Affect-SC-L",1,"Pilot"
47,48,4665,"4EYlfayMb2","Brightness-Amp-Affect-9","Brightness","Amp","Affect","9","Affect-HS-L","Affect-HS-H","Pitch-Tone-H","Pitch-Tone-L",1,"Pilot"
48,49,4735,"4EYlfayMb2","Brightness-Amp-Affect-9","Brightness","Amp","Affect","9","Size-Circles-H","Size-Circles-L","Amp-Tone-H","Amp-Tone-L",0,"Pilot"
49,50,9347,"4EYlfayMb2","Brightness-Amp-Affect-9","Brightness","Amp","Affect","9","Amp-Piano-H","Amp-Piano-L","Pitch-Tone-H","Pitch-Tone-L",0,"Pilot"
50,51,6078,"4EYlfayMb2","Brightness-Amp-Affect-9","Brightness","Amp","Affect","9","Speed-SP2-L","Speed-SP2-H","Amp-Pulse-H","Amp-Pulse-L",1,"Pilot"
51,52,2426,"4EYlfayMb2","Brightness-Amp-Affect-9","Brightness","Amp","Affect","9","Brightness-Circles-L","Brightness-Circles-H","Affect-EB-L","Affect-EB-H",0,"Pilot"
52,53,4687,"4EYlfayMb2","Brightness-Amp-Affect-9","Brightness","Amp","Affect","9","Shape-BK3-L","Shape-BK3-H","Amp-Tone-L","Amp-Tone-H",0,"Pilot"
53,54,5165,"4EYlfayMb2","Brightness-Amp-Affect-9","Brightness","Amp","Affect","9","Affect-EB-H","Affect-EB-L","Pitch-Tone-H","Pitch-Tone-L",0,"Pilot"
54,55,6101,"4EYlfayMb2","Brightness-Amp-Affect-9","Brightness","Amp","Affect","9","Amp-Hum-L","Amp-Hum-H","Brightness-Circles-H","Brightness-Circles-L",1,"Pilot"
55,56,3895,"4EYlfayMb2","Brightness-Amp-Affect-9","Brightness","Amp","Affect","9","Affect-EB-L","Affect-EB-H","Brightness-Circles-L","Brightness-Circles-H",0,"Pilot"
56,57,5472,"4EYlfayMb2","Brightness-Amp-Affect-9","Brightness","Amp","Affect","9","Color-RB-L","Color-RB-H","Amp-Pulse-L","Amp-Pulse-H",0,"Pilot"
57,58,4456,"4EYlfayMb2","Brightness-Amp-Affect-9","Brightness","Amp","Affect","9","Affect-EB-H","Affect-EB-L","Amp-Pulse-L","Amp-Pulse-H",1,"Pilot"
58,59,5236,"4EYlfayMb2","Brightness-Amp-Affect-9","Brightness","Amp","Affect","9","Amp-Piano-H","Amp-Piano-L","Shape-BK3-H","Shape-BK3-L",0,"Pilot"
59,60,4435,"4EYlfayMb2","Brightness-Amp-Affect-9","Brightness","Amp","Affect","9","Noise-Hum-H","Noise-Hum-L","Brightness-Diamonds-L","Brightness-Diamonds-H",1,"Pilot"
60,61,9544,"4EYlfayMb2","Brightness-Amp-Affect-9","Brightness","Amp","Affect","9","Amp-Hum-H","Amp-Hum-L","Noise-Hum-H","Noise-Hum-L",0,"Pilot"
61,62,3900,"4EYlfayMb2","Brightness-Amp-Affect-9","Brightness","Amp","Affect","9","Brightness-Circles-L","Brightness-Circles-H","Amp-Hum-L","Amp-Hum-H",0,"Pilot"
62,63,5665,"4EYlfayMb2","Brightness-Amp-Affect-9","Brightness","Amp","Affect","9","Amp-Piano-L","Amp-Piano-H","Size-Circles-L","Size-Circles-H",0,"Pilot"
63,64,4286,"4EYlfayMb2","Brightness-Amp-Affect-9","Brightness","Amp","Affect","9","Affect-EB-H","Affect-EB-L","Color-RB-L","Color-RB-H",1,"Pilot"
64,65,4409,"4EYlfayMb2","Brightness-Amp-Affect-9","Brightness","Amp","Affect","9","Amp-Hum-H","Amp-Hum-L","Brightness-Squares-L","Brightness-Squares-H",1,"Pilot"
65,66,4393,"4EYlfayMb2","Brightness-Amp-Affect-9","Brightness","Amp","Affect","9","Noise-Hum-H","Noise-Hum-L","Brightness-Squares-H","Brightness-Squares-L",0,"Pilot"
66,67,5911,"4EYlfayMb2","Brightness-Amp-Affect-9","Brightness","Amp","Affect","9","Noise-Hum-H","Noise-Hum-L","Affect-PD-L","Affect-PD-H",0,"Pilot"
67,68,4783,"4EYlfayMb2","Brightness-Amp-Affect-9","Brightness","Amp","Affect","9","Affect-EB-H","Affect-EB-L","Amp-Tone-H","Amp-Tone-L",0,"Pilot"
68,69,4497,"4EYlfayMb2","Brightness-Amp-Affect-9","Brightness","Amp","Affect","9","Size-Circles-H","Size-Circles-L","Amp-Pulse-L","Amp-Pulse-H",1,"Pilot"
69,70,3761,"4EYlfayMb2","Brightness-Amp-Affect-9","Brightness","Amp","Affect","9","Color-RB-L","Color-RB-H","Affect-PD-L","Affect-PD-H",0,"Pilot"
70,71,3480,"4EYlfayMb2","Brightness-Amp-Affect-9","Brightness","Amp","Affect","9","Brightness-Circles-L","Brightness-Circles-H","Shape-BK3-H","Shape-BK3-L",1,"Pilot"
71,72,12038,"4EYlfayMb2","Brightness-Amp-Affect-9","Brightness","Amp","Affect","9","Noise-Hum-H","Noise-Hum-L","Amp-Pulse-L","Amp-Pulse-H",1,"Pilot"
72,73,6833,"4EYlfayMb2","Brightness-Amp-Affect-9","Brightness","Amp","Affect","9","Affect-HS-L","Affect-HS-H","Noise-Hum-L","Noise-Hum-H",0,"Pilot"
73,74,3428,"4EYlfayMb2","Brightness-Amp-Affect-9","Brightness","Amp","Affect","9","Size-Circles-L","Size-Circles-H","Brightness-Squares-H","Brightness-Squares-L",1,"Pilot"
74,75,9808,"4EYlfayMb2","Brightness-Amp-Affect-9","Brightness","Amp","Affect","9","Pitch-Tone-H","Pitch-Tone-L","Amp-Pulse-H","Amp-Pulse-L",1,"Pilot"
75,76,3317,"4EYlfayMb2","Brightness-Amp-Affect-9","Brightness","Amp","Affect","9","Brightness-Circles-L","Brightness-Circles-H","Color-RB-L","Color-RB-H",1,"Pilot"
76,77,5147,"4EYlfayMb2","Brightness-Amp-Affect-9","Brightness","Amp","Affect","9","Pitch-Tone-L","Pitch-Tone-H","Brightness-Diamonds-L","Brightness-Diamonds-H",0,"Pilot"
77,78,5228,"4EYlfayMb2","Brightness-Amp-Affect-9","Brightness","Amp","Affect","9","Noise-Hum-L","Noise-Hum-H","Affect-SC-H","Affect-SC-L",1,"Pilot"
78,79,7054,"4EYlfayMb2","Brightness-Amp-Affect-9","Brightness","Amp","Affect","9","Brightness-Circles-H","Brightness-Circles-L","Noise-Hum-H","Noise-Hum-L",0,"Pilot"
79,80,8554,"4EYlfayMb2","Brightness-Amp-Affect-9","Brightness","Amp","Affect","9","Speed-SP2-L","Speed-SP2-H","Amp-Tone-L","Amp-Tone-H",0,"Pilot"
80,81,4048,"4EYlfayMb2","Brightness-Amp-Affect-9","Brightness","Amp","Affect","9","Brightness-Circles-H","Brightness-Circles-L","Size-Circles-L","Size-Circles-H",1,"Pilot"
81,82,6365,"4EYlfayMb2","Brightness-Amp-Affect-9","Brightness","Amp","Affect","9","Pitch-Tone-L","Pitch-Tone-H","Affect-PD-L","Affect-PD-H",0,"Pilot"
82,83,4398,"4EYlfayMb2","Brightness-Amp-Affect-9","Brightness","Amp","Affect","9","Speed-SP2-H","Speed-SP2-L","Affect-SC-L","Affect-SC-H",1,"Pilot"
83,84,2348,"4EYlfayMb2","Brightness-Amp-Affect-9","Brightness","Amp","Affect","9","Affect-HS-H","Affect-HS-L","Brightness-Circles-H","Brightness-Circles-L",0,"Pilot"
84,85,4671,"4EYlfayMb2","Brightness-Amp-Affect-9","Brightness","Amp","Affect","9","Pitch-Tone-H","Pitch-Tone-L","Affect-SC-H","Affect-SC-L",0,"Pilot"
85,86,4719,"4EYlfayMb2","Brightness-Amp-Affect-9","Brightness","Amp","Affect","9","Amp-Piano-H","Amp-Piano-L","Brightness-Circles-H","Brightness-Circles-L",0,"Pilot"
86,87,4094,"4EYlfayMb2","Brightness-Amp-Affect-9","Brightness","Amp","Affect","9","Speed-SP2-H","Speed-SP2-L","Affect-PD-H","Affect-PD-L",0,"Pilot"
87,88,7258,"4EYlfayMb2","Brightness-Amp-Affect-9","Brightness","Amp","Affect","9","Noise-Hum-H","Noise-Hum-L","Amp-Tone-H","Amp-Tone-L",0,"Pilot"
88,89,5064,"4EYlfayMb2","Brightness-Amp-Affect-9","Brightness","Amp","Affect","9","Amp-Piano-L","Amp-Piano-H","Affect-EB-L","Affect-EB-H",0,"Pilot"
89,90,4784,"4EYlfayMb2","Brightness-Amp-Affect-9","Brightness","Amp","Affect","9","Amp-Hum-H","Amp-Hum-L","Affect-SC-L","Affect-SC-H",1,"Pilot"
90,91,5140,"4EYlfayMb2","Brightness-Amp-Affect-9","Brightness","Amp","Affect","9","Amp-Hum-H","Amp-Hum-L","Brightness-Diamonds-H","Brightness-Diamonds-L",0,"Pilot"
91,92,5364,"4EYlfayMb2","Brightness-Amp-Affect-9","Brightness","Amp","Affect","9","Amp-Hum-L","Amp-Hum-H","Speed-SP2-L","Speed-SP2-H",0,"Pilot"
92,93,4912,"4EYlfayMb2","Brightness-Amp-Affect-9","Brightness","Amp","Affect","9","Brightness-Circles-H","Brightness-Circles-L","Amp-Tone-L","Amp-Tone-H",1,"Pilot"
93,94,3612,"4EYlfayMb2","Brightness-Amp-Affect-9","Brightness","Amp","Affect","9","Brightness-Triangles-L","Brightness-Triangles-H","Size-Circles-H","Size-Circles-L",1,"Pilot"
94,95,4300,"4EYlfayMb2","Brightness-Amp-Affect-9","Brightness","Amp","Affect","9","Brightness-Circles-L","Brightness-Circles-H","Affect-SC-L","Affect-SC-H",0,"Pilot"
95,96,4420,"4EYlfayMb2","Brightness-Amp-Affect-9","Brightness","Amp","Affect","9","Brightness-Triangles-L","Brightness-Triangles-H","Pitch-Tone-L","Pitch-Tone-H",0,"Pilot"
0,1,4604,"5eNXA6XYSE","Noise-Brightness-Color-6","Noise","Brightness","Color","6","Shape-BK4-H","Shape-BK4-L","Color-RB-L","Color-RB-H",0,"Pilot"
1,2,3948,"5eNXA6XYSE","Noise-Brightness-Color-6","Noise","Brightness","Color","6","Speed-SP2-L","Speed-SP2-H","Brightness-Squares-H","Brightness-Squares-L",0,"Pilot"
2,3,2263,"5eNXA6XYSE","Noise-Brightness-Color-6","Noise","Brightness","Color","6","Brightness-Triangles-H","Brightness-Triangles-L","Shape-BK4-L","Shape-BK4-H",1,"Pilot"
3,4,2660,"5eNXA6XYSE","Noise-Brightness-Color-6","Noise","Brightness","Color","6","Brightness-Triangles-H","Brightness-Triangles-L","Color-RY-L","Color-RY-H",1,"Pilot"
4,5,10267,"5eNXA6XYSE","Noise-Brightness-Color-6","Noise","Brightness","Color","6","Noise-Piano-H","Noise-Piano-L","Color-YB-L","Color-YB-H",0,"Pilot"
5,6,5767,"5eNXA6XYSE","Noise-Brightness-Color-6","Noise","Brightness","Color","6","Color-RY-H","Color-RY-L","Brightness-Diamonds-H","Brightness-Diamonds-L",1,"Pilot"
6,7,4209,"5eNXA6XYSE","Noise-Brightness-Color-6","Noise","Brightness","Color","6","Brightness-Diamonds-H","Brightness-Diamonds-L","Amp-Piano-H","Amp-Piano-L",1,"Pilot"
7,8,3602,"5eNXA6XYSE","Noise-Brightness-Color-6","Noise","Brightness","Color","6","Brightness-Diamonds-H","Brightness-Diamonds-L","Affect-HS-L","Affect-HS-H",1,"Pilot"
8,9,5454,"5eNXA6XYSE","Noise-Brightness-Color-6","Noise","Brightness","Color","6","Affect-HS-H","Affect-HS-L","Noise-Tone-L","Noise-Tone-H",0,"Pilot"
9,10,4474,"5eNXA6XYSE","Noise-Brightness-Color-6","Noise","Brightness","Color","6","Noise-Hum-H","Noise-Hum-L","Affect-HS-H","Affect-HS-L",1,"Pilot"
10,11,2796,"5eNXA6XYSE","Noise-Brightness-Color-6","Noise","Brightness","Color","6","Color-RY-L","Color-RY-H","Size-Triangles-H","Size-Triangles-L",1,"Pilot"
11,12,2316,"5eNXA6XYSE","Noise-Brightness-Color-6","Noise","Brightness","Color","6","Shape-BK4-L","Shape-BK4-H","Brightness-Circles-H","Brightness-Circles-L",1,"Pilot"
12,13,4698,"5eNXA6XYSE","Noise-Brightness-Color-6","Noise","Brightness","Color","6","Noise-Hum-H","Noise-Hum-L","Size-Triangles-H","Size-Triangles-L",1,"Pilot"
13,14,4604,"5eNXA6XYSE","Noise-Brightness-Color-6","Noise","Brightness","Color","6","Brightness-Diamonds-L","Brightness-Diamonds-H","Noise-Tone-H","Noise-Tone-L",0,"Pilot"
14,15,4682,"5eNXA6XYSE","Noise-Brightness-Color-6","Noise","Brightness","Color","6","Color-RY-L","Color-RY-H","Pitch-Pulse-H","Pitch-Pulse-L",1,"Pilot"
15,16,2931,"5eNXA6XYSE","Noise-Brightness-Color-6","Noise","Brightness","Color","6","Size-Triangles-H","Size-Triangles-L","Color-RB-H","Color-RB-L",0,"Pilot"
16,17,2082,"5eNXA6XYSE","Noise-Brightness-Color-6","Noise","Brightness","Color","6","Size-Triangles-L","Size-Triangles-H","Brightness-Squares-H","Brightness-Squares-L",1,"Pilot"
17,18,3896,"5eNXA6XYSE","Noise-Brightness-Color-6","Noise","Brightness","Color","6","Brightness-Diamonds-L","Brightness-Diamonds-H","Speed-SP2-L","Speed-SP2-H",0,"Pilot"
18,19,6231,"5eNXA6XYSE","Noise-Brightness-Color-6","Noise","Brightness","Color","6","Brightness-Diamonds-L","Brightness-Diamonds-H","Pitch-Pulse-L","Pitch-Pulse-H",0,"Pilot"
19,20,5625,"5eNXA6XYSE","Noise-Brightness-Color-6","Noise","Brightness","Color","6","Noise-Pulse-L","Noise-Pulse-H","Shape-BK4-L","Shape-BK4-H",1,"Pilot"
20,21,8210,"5eNXA6XYSE","Noise-Brightness-Color-6","Noise","Brightness","Color","6","Color-RY-H","Color-RY-L","Amp-Piano-H","Amp-Piano-L",0,"Pilot"
21,22,13045,"5eNXA6XYSE","Noise-Brightness-Color-6","Noise","Brightness","Color","6","Pitch-Pulse-L","Pitch-Pulse-H","Noise-Piano-L","Noise-Piano-H",1,"Pilot"
22,23,5412,"5eNXA6XYSE","Noise-Brightness-Color-6","Noise","Brightness","Color","6","Noise-Pulse-H","Noise-Pulse-L","Affect-HS-H","Affect-HS-L",0,"Pilot"
23,24,6977,"5eNXA6XYSE","Noise-Brightness-Color-6","Noise","Brightness","Color","6","Speed-SP2-L","Speed-SP2-H","Noise-Piano-L","Noise-Piano-H",1,"Pilot"
24,25,5777,"5eNXA6XYSE","Noise-Brightness-Color-6","Noise","Brightness","Color","6","Pitch-Pulse-H","Pitch-Pulse-L","Color-YB-L","Color-YB-H",0,"Pilot"
25,26,3823,"5eNXA6XYSE","Noise-Brightness-Color-6","Noise","Brightness","Color","6","Affect-HS-H","Affect-HS-L","Brightness-Squares-L","Brightness-Squares-H",1,"Pilot"
26,27,7590,"5eNXA6XYSE","Noise-Brightness-Color-6","Noise","Brightness","Color","6","Noise-Hum-L","Noise-Hum-H","Speed-SP2-H","Speed-SP2-L",0,"Pilot"
27,28,5318,"5eNXA6XYSE","Noise-Brightness-Color-6","Noise","Brightness","Color","6","Noise-Piano-H","Noise-Piano-L","Brightness-Circles-L","Brightness-Circles-H",0,"Pilot"
28,29,2332,"5eNXA6XYSE","Noise-Brightness-Color-6","Noise","Brightness","Color","6","Size-Triangles-H","Size-Triangles-L","Color-YB-L","Color-YB-H",0,"Pilot"
29,30,5381,"5eNXA6XYSE","Noise-Brightness-Color-6","Noise","Brightness","Color","6","Noise-Pulse-H","Noise-Pulse-L","Color-RY-H","Color-RY-L",1,"Pilot"
30,31,2744,"5eNXA6XYSE","Noise-Brightness-Color-6","Noise","Brightness","Color","6","Color-RG-L","Color-RG-H","Size-Triangles-L","Size-Triangles-H",1,"Pilot"
31,32,5626,"5eNXA6XYSE","Noise-Brightness-Color-6","Noise","Brightness","Color","6","Noise-Hum-H","Noise-Hum-L","Color-RY-L","Color-RY-H",0,"Pilot"
32,33,10045,"5eNXA6XYSE","Noise-Brightness-Color-6","Noise","Brightness","Color","6","Noise-Pulse-H","Noise-Pulse-L","Amp-Piano-L","Amp-Piano-H",1,"Pilot"
33,34,4017,"5eNXA6XYSE","Noise-Brightness-Color-6","Noise","Brightness","Color","6","Color-RG-H","Color-RG-L","Shape-BK4-H","Shape-BK4-L",0,"Pilot"
34,35,4378,"5eNXA6XYSE","Noise-Brightness-Color-6","Noise","Brightness","Color","6","Color-RG-L","Color-RG-H","Pitch-Pulse-H","Pitch-Pulse-L",1,"Pilot"
35,36,3742,"5eNXA6XYSE","Noise-Brightness-Color-6","Noise","Brightness","Color","6","Brightness-Triangles-L","Brightness-Triangles-H","Size-Triangles-L","Size-Triangles-H",0,"Pilot"
36,37,4989,"5eNXA6XYSE","Noise-Brightness-Color-6","Noise","Brightness","Color","6","Affect-HS-H","Affect-HS-L","Brightness-Circles-H","Brightness-Circles-L",0,"Pilot"
37,38,4139,"5eNXA6XYSE","Noise-Brightness-Color-6","Noise","Brightness","Color","6","Size-Triangles-H","Size-Triangles-L","Noise-Piano-H","Noise-Piano-L",1,"Pilot"
38,39,7256,"5eNXA6XYSE","Noise-Brightness-Color-6","Noise","Brightness","Color","6","Noise-Pulse-L","Noise-Pulse-H","Pitch-Pulse-L","Pitch-Pulse-H",0,"Pilot"
39,40,3805,"5eNXA6XYSE","Noise-Brightness-Color-6","Noise","Brightness","Color","6","Brightness-Triangles-L","Brightness-Triangles-H","Speed-SP2-L","Speed-SP2-H",0,"Pilot"
40,41,4487,"5eNXA6XYSE","Noise-Brightness-Color-6","Noise","Brightness","Color","6","Color-RY-L","Color-RY-H","Noise-Piano-H","Noise-Piano-L",0,"Pilot"
41,42,5622,"5eNXA6XYSE","Noise-Brightness-Color-6","Noise","Brightness","Color","6","Noise-Hum-L","Noise-Hum-H","Shape-BK4-L","Shape-BK4-H",0,"Pilot"
42,43,4639,"5eNXA6XYSE","Noise-Brightness-Color-6","Noise","Brightness","Color","6","Brightness-Triangles-L","Brightness-Triangles-H","Pitch-Pulse-L","Pitch-Pulse-H",0,"Pilot"
43,44,4921,"5eNXA6XYSE","Noise-Brightness-Color-6","Noise","Brightness","Color","6","Size-Triangles-L","Size-Triangles-H","Noise-Tone-L","Noise-Tone-H",1,"Pilot"
44,45,2947,"5eNXA6XYSE","Noise-Brightness-Color-6","Noise","Brightness","Color","6","Brightness-Diamonds-L","Brightness-Diamonds-H","Color-RB-L","Color-RB-H",1,"Pilot"
45,46,2562,"5eNXA6XYSE","Noise-Brightness-Color-6","Noise","Brightness","Color","6","Color-RY-L","Color-RY-H","Brightness-Circles-H","Brightness-Circles-L",0,"Pilot"
46,47,9039,"5eNXA6XYSE","Noise-Brightness-Color-6","Noise","Brightness","Color","6","Amp-Piano-H","Amp-Piano-L","Color-RB-L","Color-RB-H",1,"Pilot"
47,48,3241,"5eNXA6XYSE","Noise-Brightness-Color-6","Noise","Brightness","Color","6","Brightness-Diamonds-H","Brightness-Diamonds-L","Shape-BK4-L","Shape-BK4-H",0,"Pilot"
48,49,4420,"5eNXA6XYSE","Noise-Brightness-Color-6","Noise","Brightness","Color","6","Pitch-Pulse-L","Pitch-Pulse-H","Brightness-Squares-H","Brightness-Squares-L",1,"Pilot"
49,50,4783,"5eNXA6XYSE","Noise-Brightness-Color-6","Noise","Brightness","Color","6","Color-RY-L","Color-RY-H","Noise-Tone-L","Noise-Tone-H",1,"Pilot"
50,51,4288,"5eNXA6XYSE","Noise-Brightness-Color-6","Noise","Brightness","Color","6","Brightness-Triangles-L","Brightness-Triangles-H","Noise-Piano-L","Noise-Piano-H",1,"Pilot"
51,52,6866,"5eNXA6XYSE","Noise-Brightness-Color-6","Noise","Brightness","Color","6","Noise-Pulse-H","Noise-Pulse-L","Size-Triangles-H","Size-Triangles-L",0,"Pilot"
52,53,5788,"5eNXA6XYSE","Noise-Brightness-Color-6","Noise","Brightness","Color","6","Noise-Piano-L","Noise-Piano-H","Color-RB-H","Color-RB-L",0,"Pilot"
53,54,4362,"5eNXA6XYSE","Noise-Brightness-Color-6","Noise","Brightness","Color","6","Amp-Piano-L","Amp-Piano-H","Brightness-Circles-H","Brightness-Circles-L",1,"Pilot"
54,55,4422,"5eNXA6XYSE","Noise-Brightness-Color-6","Noise","Brightness","Color","6","Brightness-Diamonds-L","Brightness-Diamonds-H","Noise-Piano-H","Noise-Piano-L",0,"Pilot"
55,56,4651,"5eNXA6XYSE","Noise-Brightness-Color-6","Noise","Brightness","Color","6","Pitch-Pulse-H","Pitch-Pulse-L","Color-RB-H","Color-RB-L",0,"Pilot"
56,57,9187,"5eNXA6XYSE","Noise-Brightness-Color-6","Noise","Brightness","Color","6","Noise-Hum-L","Noise-Hum-H","Pitch-Pulse-H","Pitch-Pulse-L",0,"Pilot"
57,58,4130,"5eNXA6XYSE","Noise-Brightness-Color-6","Noise","Brightness","Color","6","Brightness-Diamonds-H","Brightness-Diamonds-L","Color-YB-H","Color-YB-L",0,"Pilot"
58,59,5073,"5eNXA6XYSE","Noise-Brightness-Color-6","Noise","Brightness","Color","6","Shape-BK4-H","Shape-BK4-L","Noise-Tone-H","Noise-Tone-L",0,"Pilot"
59,60,7554,"5eNXA6XYSE","Noise-Brightness-Color-6","Noise","Brightness","Color","6","Amp-Piano-H","Amp-Piano-L","Noise-Tone-L","Noise-Tone-H",0,"Pilot"
60,61,3971,"5eNXA6XYSE","Noise-Brightness-Color-6","Noise","Brightness","Color","6","Color-RY-H","Color-RY-L","Brightness-Squares-L","Brightness-Squares-H",0,"Pilot"
61,62,3971,"5eNXA6XYSE","Noise-Brightness-Color-6","Noise","Brightness","Color","6","Speed-SP2-L","Speed-SP2-H","Color-YB-L","Color-YB-H",0,"Pilot"
62,63,7555,"5eNXA6XYSE","Noise-Brightness-Color-6","Noise","Brightness","Color","6","Brightness-Triangles-H","Brightness-Triangles-L","Amp-Piano-L","Amp-Piano-H",1,"Pilot"
63,64,4383,"5eNXA6XYSE","Noise-Brightness-Color-6","Noise","Brightness","Color","6","Affect-HS-H","Affect-HS-L","Noise-Piano-H","Noise-Piano-L",1,"Pilot"
64,65,2846,"5eNXA6XYSE","Noise-Brightness-Color-6","Noise","Brightness","Color","6","Color-RG-H","Color-RG-L","Brightness-Diamonds-H","Brightness-Diamonds-L",1,"Pilot"
65,66,3247,"5eNXA6XYSE","Noise-Brightness-Color-6","Noise","Brightness","Color","6","Color-RG-H","Color-RG-L","Affect-HS-L","Affect-HS-H",1,"Pilot"
66,67,2711,"5eNXA6XYSE","Noise-Brightness-Color-6","Noise","Brightness","Color","6","Affect-HS-L","Affect-HS-H","Color-RB-L","Color-RB-H",0,"Pilot"
67,68,8512,"5eNXA6XYSE","Noise-Brightness-Color-6","Noise","Brightness","Color","6","Amp-Piano-L","Amp-Piano-H","Brightness-Squares-L","Brightness-Squares-H",0,"Pilot"
68,69,4808,"5eNXA6XYSE","Noise-Brightness-Color-6","Noise","Brightness","Color","6","Brightness-Diamonds-H","Brightness-Diamonds-L","Color-RY-H","Color-RY-L",0,"Pilot"
69,70,5044,"5eNXA6XYSE","Noise-Brightness-Color-6","Noise","Brightness","Color","6","Brightness-Diamonds-H","Brightness-Diamonds-L","Noise-Piano-L","Noise-Piano-H",0,"Pilot"
70,71,3259,"5eNXA6XYSE","Noise-Brightness-Color-6","Noise","Brightness","Color","6","Color-RG-L","Color-RG-H","Speed-SP2-H","Speed-SP2-L",1,"Pilot"
71,72,7507,"5eNXA6XYSE","Noise-Brightness-Color-6","Noise","Brightness","Color","6","Noise-Hum-H","Noise-Hum-L","Amp-Piano-L","Amp-Piano-H",0,"Pilot"
72,73,6617,"5eNXA6XYSE","Noise-Brightness-Color-6","Noise","Brightness","Color","6","Pitch-Pulse-H","Pitch-Pulse-L","Noise-Tone-H","Noise-Tone-L",1,"Pilot"
73,74,6527,"5eNXA6XYSE","Noise-Brightness-Color-6","Noise","Brightness","Color","6","Amp-Piano-H","Amp-Piano-L","Noise-Piano-H","Noise-Piano-L",1,"Pilot"
74,75,4609,"5eNXA6XYSE","Noise-Brightness-Color-6","Noise","Brightness","Color","6","Pitch-Pulse-L","Pitch-Pulse-H","Brightness-Circles-L","Brightness-Circles-H",0,"Pilot"
75,76,2270,"5eNXA6XYSE","Noise-Brightness-Color-6","Noise","Brightness","Color","6","Affect-HS-L","Affect-HS-H","Color-YB-H","Color-YB-L",1,"Pilot"
76,77,5150,"5eNXA6XYSE","Noise-Brightness-Color-6","Noise","Brightness","Color","6","Noise-Pulse-L","Noise-Pulse-H","Brightness-Diamonds-L","Brightness-Diamonds-H",0,"Pilot"
77,78,8188,"5eNXA6XYSE","Noise-Brightness-Color-6","Noise","Brightness","Color","6","Amp-Piano-L","Amp-Piano-H","Color-YB-H","Color-YB-L",1,"Pilot"
78,79,6537,"5eNXA6XYSE","Noise-Brightness-Color-6","Noise","Brightness","Color","6","Shape-BK4-L","Shape-BK4-H","Noise-Piano-L","Noise-Piano-H",0,"Pilot"
79,80,4553,"5eNXA6XYSE","Noise-Brightness-Color-6","Noise","Brightness","Color","6","Color-RG-L","Color-RG-H","Noise-Piano-L","Noise-Piano-H",1,"Pilot"
80,81,3583,"5eNXA6XYSE","Noise-Brightness-Color-6","Noise","Brightness","Color","6","Brightness-Diamonds-L","Brightness-Diamonds-H","Size-Triangles-L","Size-Triangles-H",0,"Pilot"
81,82,4924,"5eNXA6XYSE","Noise-Brightness-Color-6","Noise","Brightness","Color","6","Noise-Hum-L","Noise-Hum-H","Brightness-Diamonds-H","Brightness-Diamonds-L",0,"Pilot"
82,83,5781,"5eNXA6XYSE","Noise-Brightness-Color-6","Noise","Brightness","Color","6","Color-RG-H","Color-RG-L","Amp-Piano-L","Amp-Piano-H",1,"Pilot"
83,84,8475,"5eNXA6XYSE","Noise-Brightness-Color-6","Noise","Brightness","Color","6","Noise-Pulse-L","Noise-Pulse-H","Speed-SP2-H","Speed-SP2-L",0,"Pilot"
84,85,8384,"5eNXA6XYSE","Noise-Brightness-Color-6","Noise","Brightness","Color","6","Size-Triangles-H","Size-Triangles-L","Brightness-Circles-L","Brightness-Circles-H",1,"Pilot"
85,86,5060,"5eNXA6XYSE","Noise-Brightness-Color-6","Noise","Brightness","Color","6","Color-RY-H","Color-RY-L","Shape-BK4-H","Shape-BK4-L",1,"Pilot"
86,87,4323,"5eNXA6XYSE","Noise-Brightness-Color-6","Noise","Brightness","Color","6","Color-RY-H","Color-RY-L","Noise-Piano-H","Noise-Piano-L",1,"Pilot"
87,88,3152,"5eNXA6XYSE","Noise-Brightness-Color-6","Noise","Brightness","Color","6","Speed-SP2-H","Speed-SP2-L","Color-RB-H","Color-RB-L",0,"Pilot"
88,89,5227,"5eNXA6XYSE","Noise-Brightness-Color-6","Noise","Brightness","Color","6","Speed-SP2-L","Speed-SP2-H","Noise-Tone-H","Noise-Tone-L",0,"Pilot"
89,90,2074,"5eNXA6XYSE","Noise-Brightness-Color-6","Noise","Brightness","Color","6","Shape-BK4-L","Shape-BK4-H","Brightness-Squares-L","Brightness-Squares-H",1,"Pilot"
90,91,3626,"5eNXA6XYSE","Noise-Brightness-Color-6","Noise","Brightness","Color","6","Brightness-Triangles-H","Brightness-Triangles-L","Affect-HS-H","Affect-HS-L",0,"Pilot"
91,92,2468,"5eNXA6XYSE","Noise-Brightness-Color-6","Noise","Brightness","Color","6","Color-RY-H","Color-RY-L","Affect-HS-L","Affect-HS-H",1,"Pilot"
92,93,3991,"5eNXA6XYSE","Noise-Brightness-Color-6","Noise","Brightness","Color","6","Color-RY-L","Color-RY-H","Speed-SP2-H","Speed-SP2-L",1,"Pilot"
93,94,4538,"5eNXA6XYSE","Noise-Brightness-Color-6","Noise","Brightness","Color","6","Noise-Piano-H","Noise-Piano-L","Brightness-Squares-H","Brightness-Squares-L",1,"Pilot"
94,95,3439,"5eNXA6XYSE","Noise-Brightness-Color-6","Noise","Brightness","Color","6","Speed-SP2-L","Speed-SP2-H","Brightness-Circles-L","Brightness-Circles-H",0,"Pilot"
95,96,4656,"5eNXA6XYSE","Noise-Brightness-Color-6","Noise","Brightness","Color","6","Shape-BK4-L","Shape-BK4-H","Color-YB-H","Color-YB-L",0,"Pilot"
0,1,3535,"5Iv1RE0roc","Brightness-Amp-Affect-7","Brightness","Amp","Affect","7","Size-Circles-H","Size-Circles-L","Affect-HS-H","Affect-HS-L",0,"Pilot"
1,2,5733,"5Iv1RE0roc","Brightness-Amp-Affect-7","Brightness","Amp","Affect","7","Affect-SC-L","Affect-SC-H","Noise-Tone-L","Noise-Tone-H",0,"Pilot"
2,3,5038,"5Iv1RE0roc","Brightness-Amp-Affect-7","Brightness","Amp","Affect","7","Speed-SP2-L","Speed-SP2-H","Brightness-Circles-H","Brightness-Circles-L",0,"Pilot"
3,4,13331,"5Iv1RE0roc","Brightness-Amp-Affect-7","Brightness","Amp","Affect","7","Amp-Hum-H","Amp-Hum-L","Affect-PD-L","Affect-PD-H",1,"Pilot"
4,5,4198,"5Iv1RE0roc","Brightness-Amp-Affect-7","Brightness","Amp","Affect","7","Brightness-Triangles-H","Brightness-Triangles-L","Shape-BK4-H","Shape-BK4-L",0,"Pilot"
5,6,9092,"5Iv1RE0roc","Brightness-Amp-Affect-7","Brightness","Amp","Affect","7","Pitch-Tone-L","Pitch-Tone-H","Amp-Pulse-L","Amp-Pulse-H",0,"Pilot"
6,7,4717,"5Iv1RE0roc","Brightness-Amp-Affect-7","Brightness","Amp","Affect","7","Amp-Piano-H","Amp-Piano-L","Size-Circles-L","Size-Circles-H",1,"Pilot"
7,8,8547,"5Iv1RE0roc","Brightness-Amp-Affect-7","Brightness","Amp","Affect","7","Pitch-Tone-L","Pitch-Tone-H","Amp-Tone-H","Amp-Tone-L",0,"Pilot"
8,9,5292,"5Iv1RE0roc","Brightness-Amp-Affect-7","Brightness","Amp","Affect","7","Brightness-Squares-L","Brightness-Squares-H","Amp-Tone-H","Amp-Tone-L",1,"Pilot"
9,10,3270,"5Iv1RE0roc","Brightness-Amp-Affect-7","Brightness","Amp","Affect","7","Color-RG-L","Color-RG-H","Brightness-Circles-L","Brightness-Circles-H",1,"Pilot"
10,11,2702,"5Iv1RE0roc","Brightness-Amp-Affect-7","Brightness","Amp","Affect","7","Brightness-Squares-H","Brightness-Squares-L","Color-RG-H","Color-RG-L",1,"Pilot"
11,12,4814,"5Iv1RE0roc","Brightness-Amp-Affect-7","Brightness","Amp","Affect","7","Affect-SC-L","Affect-SC-H","Color-RG-L","Color-RG-H",0,"Pilot"
12,13,4941,"5Iv1RE0roc","Brightness-Amp-Affect-7","Brightness","Amp","Affect","7","Shape-BK4-H","Shape-BK4-L","Amp-Tone-H","Amp-Tone-L",0,"Pilot"
13,14,2893,"5Iv1RE0roc","Brightness-Amp-Affect-7","Brightness","Amp","Affect","7","Brightness-Triangles-H","Brightness-Triangles-L","Color-RG-L","Color-RG-H",1,"Pilot"
14,15,4052,"5Iv1RE0roc","Brightness-Amp-Affect-7","Brightness","Amp","Affect","7","Noise-Tone-L","Noise-Tone-H","Brightness-Diamonds-L","Brightness-Diamonds-H",0,"Pilot"
15,16,4100,"5Iv1RE0roc","Brightness-Amp-Affect-7","Brightness","Amp","Affect","7","Color-RG-L","Color-RG-H","Amp-Pulse-H","Amp-Pulse-L",1,"Pilot"
16,17,5109,"5Iv1RE0roc","Brightness-Amp-Affect-7","Brightness","Amp","Affect","7","Size-Circles-H","Size-Circles-L","Brightness-Diamonds-L","Brightness-Diamonds-H",1,"Pilot"
17,18,5892,"5Iv1RE0roc","Brightness-Amp-Affect-7","Brightness","Amp","Affect","7","Speed-SP2-H","Speed-SP2-L","Amp-Pulse-L","Amp-Pulse-H",0,"Pilot"
18,19,5134,"5Iv1RE0roc","Brightness-Amp-Affect-7","Brightness","Amp","Affect","7","Speed-SP2-L","Speed-SP2-H","Affect-HS-L","Affect-HS-H",0,"Pilot"
19,20,4812,"5Iv1RE0roc","Brightness-Amp-Affect-7","Brightness","Amp","Affect","7","Affect-SC-H","Affect-SC-L","Amp-Tone-H","Amp-Tone-L",0,"Pilot"
20,21,3965,"5Iv1RE0roc","Brightness-Amp-Affect-7","Brightness","Amp","Affect","7","Affect-PD-L","Affect-PD-H","Brightness-Circles-L","Brightness-Circles-H",0,"Pilot"
21,22,3629,"5Iv1RE0roc","Brightness-Amp-Affect-7","Brightness","Amp","Affect","7","Brightness-Triangles-L","Brightness-Triangles-H","Noise-Tone-L","Noise-Tone-H",0,"Pilot"
22,23,3861,"5Iv1RE0roc","Brightness-Amp-Affect-7","Brightness","Amp","Affect","7","Color-RG-H","Color-RG-L","Affect-PD-L","Affect-PD-H",0,"Pilot"
23,24,3084,"5Iv1RE0roc","Brightness-Amp-Affect-7","Brightness","Amp","Affect","7","Shape-BK4-H","Shape-BK4-L","Brightness-Diamonds-H","Brightness-Diamonds-L",0,"Pilot"
24,25,6332,"5Iv1RE0roc","Brightness-Amp-Affect-7","Brightness","Amp","Affect","7","Amp-Hum-L","Amp-Hum-H","Pitch-Tone-H","Pitch-Tone-L",1,"Pilot"
25,26,3461,"5Iv1RE0roc","Brightness-Amp-Affect-7","Brightness","Amp","Affect","7","Brightness-Triangles-H","Brightness-Triangles-L","Amp-Tone-L","Amp-Tone-H",1,"Pilot"
26,27,6572,"5Iv1RE0roc","Brightness-Amp-Affect-7","Brightness","Amp","Affect","7","Brightness-Triangles-H","Brightness-Triangles-L","Affect-PD-H","Affect-PD-L",0,"Pilot"
27,28,2565,"5Iv1RE0roc","Brightness-Amp-Affect-7","Brightness","Amp","Affect","7","Brightness-Squares-H","Brightness-Squares-L","Affect-HS-L","Affect-HS-H",1,"Pilot"
28,29,4878,"5Iv1RE0roc","Brightness-Amp-Affect-7","Brightness","Amp","Affect","7","Affect-SC-H","Affect-SC-L","Shape-BK4-H","Shape-BK4-L",0,"Pilot"
29,30,5437,"5Iv1RE0roc","Brightness-Amp-Affect-7","Brightness","Amp","Affect","7","Brightness-Squares-H","Brightness-Squares-L","Amp-Pulse-L","Amp-Pulse-H",1,"Pilot"
30,31,4458,"5Iv1RE0roc","Brightness-Amp-Affect-7","Brightness","Amp","Affect","7","Amp-Hum-H","Amp-Hum-L","Size-Circles-H","Size-Circles-L",0,"Pilot"
31,32,2286,"5Iv1RE0roc","Brightness-Amp-Affect-7","Brightness","Amp","Affect","7","Brightness-Squares-L","Brightness-Squares-H","Affect-PD-H","Affect-PD-L",1,"Pilot"
32,33,2581,"5Iv1RE0roc","Brightness-Amp-Affect-7","Brightness","Amp","Affect","7","Shape-BK4-H","Shape-BK4-L","Brightness-Circles-L","Brightness-Circles-H",1,"Pilot"
33,34,3957,"5Iv1RE0roc","Brightness-Amp-Affect-7","Brightness","Amp","Affect","7","Amp-Piano-L","Amp-Piano-H","Brightness-Squares-L","Brightness-Squares-H",0,"Pilot"
34,35,8627,"5Iv1RE0roc","Brightness-Amp-Affect-7","Brightness","Amp","Affect","7","Amp-Piano-L","Amp-Piano-H","Pitch-Tone-L","Pitch-Tone-H",0,"Pilot"
35,36,6077,"5Iv1RE0roc","Brightness-Amp-Affect-7","Brightness","Amp","Affect","7","Pitch-Tone-L","Pitch-Tone-H","Brightness-Diamonds-L","Brightness-Diamonds-H",0,"Pilot"
36,37,4348,"5Iv1RE0roc","Brightness-Amp-Affect-7","Brightness","Amp","Affect","7","Noise-Tone-L","Noise-Tone-H","Affect-PD-L","Affect-PD-H",1,"Pilot"
37,38,6859,"5Iv1RE0roc","Brightness-Amp-Affect-7","Brightness","Amp","Affect","7","Amp-Hum-H","Amp-Hum-L","Noise-Tone-L","Noise-Tone-H",1,"Pilot"
38,39,4637,"5Iv1RE0roc","Brightness-Amp-Affect-7","Brightness","Amp","Affect","7","Affect-EB-L","Affect-EB-H","Pitch-Tone-H","Pitch-Tone-L",1,"Pilot"
39,40,3924,"5Iv1RE0roc","Brightness-Amp-Affect-7","Brightness","Amp","Affect","7","Brightness-Squares-L","Brightness-Squares-H","Pitch-Tone-H","Pitch-Tone-L",0,"Pilot"
40,41,3229,"5Iv1RE0roc","Brightness-Amp-Affect-7","Brightness","Amp","Affect","7","Color-RG-L","Color-RG-H","Affect-HS-H","Affect-HS-L",0,"Pilot"
41,42,5157,"5Iv1RE0roc","Brightness-Amp-Affect-7","Brightness","Amp","Affect","7","Size-Circles-H","Size-Circles-L","Amp-Pulse-H","Amp-Pulse-L",0,"Pilot"
42,43,6155,"5Iv1RE0roc","Brightness-Amp-Affect-7","Brightness","Amp","Affect","7","Affect-EB-L","Affect-EB-H","Noise-Tone-H","Noise-Tone-L",0,"Pilot"
43,44,3351,"5Iv1RE0roc","Brightness-Amp-Affect-7","Brightness","Amp","Affect","7","Affect-EB-H","Affect-EB-L","Brightness-Squares-H","Brightness-Squares-L",0,"Pilot"
44,45,5158,"5Iv1RE0roc","Brightness-Amp-Affect-7","Brightness","Amp","Affect","7","Brightness-Squares-L","Brightness-Squares-H","Speed-SP2-L","Speed-SP2-H",0,"Pilot"
45,46,3501,"5Iv1RE0roc","Brightness-Amp-Affect-7","Brightness","Amp","Affect","7","Affect-EB-L","Affect-EB-H","Color-RG-H","Color-RG-L",0,"Pilot"
46,47,2518,"5Iv1RE0roc","Brightness-Amp-Affect-7","Brightness","Amp","Affect","7","Brightness-Squares-H","Brightness-Squares-L","Shape-BK4-L","Shape-BK4-H",0,"Pilot"
47,48,5429,"5Iv1RE0roc","Brightness-Amp-Affect-7","Brightness","Amp","Affect","7","Amp-Tone-L","Amp-Tone-H","Affect-PD-H","Affect-PD-L",1,"Pilot"
48,49,4445,"5Iv1RE0roc","Brightness-Amp-Affect-7","Brightness","Amp","Affect","7","Noise-Tone-H","Noise-Tone-L","Brightness-Circles-H","Brightness-Circles-L",0,"Pilot"
49,50,8412,"5Iv1RE0roc","Brightness-Amp-Affect-7","Brightness","Amp","Affect","7","Amp-Piano-H","Amp-Piano-L","Affect-PD-L","Affect-PD-H",0,"Pilot"
50,51,3421,"5Iv1RE0roc","Brightness-Amp-Affect-7","Brightness","Amp","Affect","7","Affect-EB-H","Affect-EB-L","Speed-SP2-H","Speed-SP2-L",0,"Pilot"
51,52,3981,"5Iv1RE0roc","Brightness-Amp-Affect-7","Brightness","Amp","Affect","7","Affect-SC-H","Affect-SC-L","Brightness-Squares-H","Brightness-Squares-L",1,"Pilot"
52,53,4461,"5Iv1RE0roc","Brightness-Amp-Affect-7","Brightness","Amp","Affect","7","Brightness-Squares-L","Brightness-Squares-H","Noise-Tone-L","Noise-Tone-H",1,"Pilot"
53,54,2990,"5Iv1RE0roc","Brightness-Amp-Affect-7","Brightness","Amp","Affect","7","Speed-SP2-H","Speed-SP2-L","Brightness-Diamonds-L","Brightness-Diamonds-H",1,"Pilot"
54,55,4397,"5Iv1RE0roc","Brightness-Amp-Affect-7","Brightness","Amp","Affect","7","Amp-Hum-L","Amp-Hum-H","Speed-SP2-L","Speed-SP2-H",0,"Pilot"
55,56,11379,"5Iv1RE0roc","Brightness-Amp-Affect-7","Brightness","Amp","Affect","7","Amp-Piano-H","Amp-Piano-L","Noise-Tone-H","Noise-Tone-L",0,"Pilot"
56,57,3765,"5Iv1RE0roc","Brightness-Amp-Affect-7","Brightness","Amp","Affect","7","Brightness-Triangles-L","Brightness-Triangles-H","Speed-SP2-L","Speed-SP2-H",0,"Pilot"
57,58,4814,"5Iv1RE0roc","Brightness-Amp-Affect-7","Brightness","Amp","Affect","7","Affect-PD-L","Affect-PD-H","Brightness-Diamonds-H","Brightness-Diamonds-L",1,"Pilot"
58,59,4549,"5Iv1RE0roc","Brightness-Amp-Affect-7","Brightness","Amp","Affect","7","Pitch-Tone-H","Pitch-Tone-L","Affect-HS-H","Affect-HS-L",0,"Pilot"
59,60,4685,"5Iv1RE0roc","Brightness-Amp-Affect-7","Brightness","Amp","Affect","7","Size-Circles-H","Size-Circles-L","Amp-Tone-L","Amp-Tone-H",1,"Pilot"
60,61,4165,"5Iv1RE0roc","Brightness-Amp-Affect-7","Brightness","Amp","Affect","7","Size-Circles-L","Size-Circles-H","Brightness-Circles-H","Brightness-Circles-L",1,"Pilot"
61,62,4556,"5Iv1RE0roc","Brightness-Amp-Affect-7","Brightness","Amp","Affect","7","Amp-Hum-L","Amp-Hum-H","Brightness-Squares-H","Brightness-Squares-L",1,"Pilot"
62,63,9318,"5Iv1RE0roc","Brightness-Amp-Affect-7","Brightness","Amp","Affect","7","Brightness-Triangles-L","Brightness-Triangles-H","Size-Circles-L","Size-Circles-H",0,"Pilot"
63,64,2990,"5Iv1RE0roc","Brightness-Amp-Affect-7","Brightness","Amp","Affect","7","Affect-EB-H","Affect-EB-L","Shape-BK4-H","Shape-BK4-L",0,"Pilot"
64,65,2518,"5Iv1RE0roc","Brightness-Amp-Affect-7","Brightness","Amp","Affect","7","Brightness-Squares-H","Brightness-Squares-L","Affect-PD-L","Affect-PD-H",1,"Pilot"
65,66,5780,"5Iv1RE0roc","Brightness-Amp-Affect-7","Brightness","Amp","Affect","7","Amp-Tone-H","Amp-Tone-L","Brightness-Diamonds-H","Brightness-Diamonds-L",0,"Pilot"
66,67,2542,"5Iv1RE0roc","Brightness-Amp-Affect-7","Brightness","Amp","Affect","7","Shape-BK4-H","Shape-BK4-L","Affect-HS-L","Affect-HS-H",1,"Pilot"
67,68,3269,"5Iv1RE0roc","Brightness-Amp-Affect-7","Brightness","Amp","Affect","7","Affect-EB-L","Affect-EB-H","Size-Circles-H","Size-Circles-L",1,"Pilot"
68,69,2366,"5Iv1RE0roc","Brightness-Amp-Affect-7","Brightness","Amp","Affect","7","Affect-SC-L","Affect-SC-H","Size-Circles-H","Size-Circles-L",1,"Pilot"
69,70,5557,"5Iv1RE0roc","Brightness-Amp-Affect-7","Brightness","Amp","Affect","7","Amp-Piano-L","Amp-Piano-H","Speed-SP2-L","Speed-SP2-H",0,"Pilot"
70,71,2429,"5Iv1RE0roc","Brightness-Amp-Affect-7","Brightness","Amp","Affect","7","Size-Circles-L","Size-Circles-H","Affect-PD-L","Affect-PD-H",0,"Pilot"
71,72,4196,"5Iv1RE0roc","Brightness-Amp-Affect-7","Brightness","Amp","Affect","7","Amp-Piano-L","Amp-Piano-H","Shape-BK4-H","Shape-BK4-L",1,"Pilot"
72,73,3899,"5Iv1RE0roc","Brightness-Amp-Affect-7","Brightness","Amp","Affect","7","Brightness-Squares-H","Brightness-Squares-L","Amp-Tone-H","Amp-Tone-L",0,"Pilot"
73,74,4749,"5Iv1RE0roc","Brightness-Amp-Affect-7","Brightness","Amp","Affect","7","Amp-Hum-H","Amp-Hum-L","Color-RG-L","Color-RG-H",0,"Pilot"
74,75,4180,"5Iv1RE0roc","Brightness-Amp-Affect-7","Brightness","Amp","Affect","7","Affect-PD-L","Affect-PD-H","Amp-Pulse-H","Amp-Pulse-L",1,"Pilot"
75,76,4348,"5Iv1RE0roc","Brightness-Amp-Affect-7","Brightness","Amp","Affect","7","Noise-Tone-L","Noise-Tone-H","Affect-HS-H","Affect-HS-L",1,"Pilot"
76,77,4012,"5Iv1RE0roc","Brightness-Amp-Affect-7","Brightness","Amp","Affect","7","Pitch-Tone-H","Pitch-Tone-L","Brightness-Circles-H","Brightness-Circles-L",1,"Pilot"
77,78,3773,"5Iv1RE0roc","Brightness-Amp-Affect-7","Brightness","Amp","Affect","7","Brightness-Triangles-L","Brightness-Triangles-H","Pitch-Tone-H","Pitch-Tone-L",1,"Pilot"
78,79,7612,"5Iv1RE0roc","Brightness-Amp-Affect-7","Brightness","Amp","Affect","7","Affect-SC-L","Affect-SC-H","Pitch-Tone-L","Pitch-Tone-H",0,"Pilot"
79,80,4308,"5Iv1RE0roc","Brightness-Amp-Affect-7","Brightness","Amp","Affect","7","Amp-Tone-L","Amp-Tone-H","Affect-HS-L","Affect-HS-H",0,"Pilot"
80,81,3398,"5Iv1RE0roc","Brightness-Amp-Affect-7","Brightness","Amp","Affect","7","Amp-Tone-L","Amp-Tone-H","Brightness-Circles-L","Brightness-Circles-H",0,"Pilot"
81,82,3925,"5Iv1RE0roc","Brightness-Amp-Affect-7","Brightness","Amp","Affect","7","Shape-BK4-L","Shape-BK4-H","Affect-PD-H","Affect-PD-L",0,"Pilot"
82,83,3956,"5Iv1RE0roc","Brightness-Amp-Affect-7","Brightness","Amp","Affect","7","Affect-EB-H","Affect-EB-L","Amp-Tone-L","Amp-Tone-H",1,"Pilot"
83,84,6021,"5Iv1RE0roc","Brightness-Amp-Affect-7","Brightness","Amp","Affect","7","Amp-Hum-L","Amp-Hum-H","Shape-BK4-H","Shape-BK4-L",1,"Pilot"
84,85,10381,"5Iv1RE0roc","Brightness-Amp-Affect-7","Brightness","Amp","Affect","7","Amp-Piano-H","Amp-Piano-L","Color-RG-L","Color-RG-H",0,"Pilot"
85,86,3907,"5Iv1RE0roc","Brightness-Amp-Affect-7","Brightness","Amp","Affect","7","Shape-BK4-H","Shape-BK4-L","Amp-Pulse-L","Amp-Pulse-H",1,"Pilot"
86,87,3788,"5Iv1RE0roc","Brightness-Amp-Affect-7","Brightness","Amp","Affect","7","Pitch-Tone-L","Pitch-Tone-H","Affect-PD-L","Affect-PD-H",0,"Pilot"
87,88,3149,"5Iv1RE0roc","Brightness-Amp-Affect-7","Brightness","Amp","Affect","7","Affect-PD-L","Affect-PD-H","Amp-Tone-L","Amp-Tone-H",0,"Pilot"
88,89,5921,"5Iv1RE0roc","Brightness-Amp-Affect-7","Brightness","Amp","Affect","7","Noise-Tone-H","Noise-Tone-L","Amp-Pulse-H","Amp-Pulse-L",1,"Pilot"
89,90,3716,"5Iv1RE0roc","Brightness-Amp-Affect-7","Brightness","Amp","Affect","7","Color-RG-H","Color-RG-L","Amp-Tone-L","Amp-Tone-H",1,"Pilot"
90,91,2751,"5Iv1RE0roc","Brightness-Amp-Affect-7","Brightness","Amp","Affect","7","Brightness-Squares-L","Brightness-Squares-H","Size-Circles-L","Size-Circles-H",0,"Pilot"
91,92,3229,"5Iv1RE0roc","Brightness-Amp-Affect-7","Brightness","Amp","Affect","7","Affect-SC-H","Affect-SC-L","Speed-SP2-H","Speed-SP2-L",0,"Pilot"
92,93,2845,"5Iv1RE0roc","Brightness-Amp-Affect-7","Brightness","Amp","Affect","7","Color-RG-H","Color-RG-L","Brightness-Diamonds-H","Brightness-Diamonds-L",1,"Pilot"
93,94,3757,"5Iv1RE0roc","Brightness-Amp-Affect-7","Brightness","Amp","Affect","7","Speed-SP2-H","Speed-SP2-L","Affect-PD-H","Affect-PD-L",1,"Pilot"
94,95,5468,"5Iv1RE0roc","Brightness-Amp-Affect-7","Brightness","Amp","Affect","7","Noise-Tone-H","Noise-Tone-L","Amp-Tone-L","Amp-Tone-H",1,"Pilot"
95,96,4348,"5Iv1RE0roc","Brightness-Amp-Affect-7","Brightness","Amp","Affect","7","Speed-SP2-H","Speed-SP2-L","Amp-Tone-H","Amp-Tone-L",0,"Pilot"
0,1,20240,"5P5Px641Uv","Noise-Shape-Speed-4","Noise","Shape","Speed","4","Size-Squares-H","Size-Squares-L","Speed-SP1-L","Speed-SP1-H",1,"Pilot"
1,2,8666,"5P5Px641Uv","Noise-Shape-Speed-4","Noise","Shape","Speed","4","Pitch-Piano-L","Pitch-Piano-H","Speed-SP1-L","Speed-SP1-H",0,"Pilot"
2,3,6912,"5P5Px641Uv","Noise-Shape-Speed-4","Noise","Shape","Speed","4","Color-RY-H","Color-RY-L","Noise-Hum-L","Noise-Hum-H",1,"Pilot"
3,4,9514,"5P5Px641Uv","Noise-Shape-Speed-4","Noise","Shape","Speed","4","Noise-Pulse-L","Noise-Pulse-H","Size-Squares-H","Size-Squares-L",0,"Pilot"
4,5,11467,"5P5Px641Uv","Noise-Shape-Speed-4","Noise","Shape","Speed","4","Color-RY-H","Color-RY-L","Speed-SP4-H","Speed-SP4-L",1,"Pilot"
5,6,6776,"5P5Px641Uv","Noise-Shape-Speed-4","Noise","Shape","Speed","4","Affect-EB-H","Affect-EB-L","Speed-SP1-H","Speed-SP1-L",0,"Pilot"
6,7,6825,"5P5Px641Uv","Noise-Shape-Speed-4","Noise","Shape","Speed","4","Brightness-Diamonds-L","Brightness-Diamonds-H","Shape-BK3-L","Shape-BK3-H",1,"Pilot"
7,8,8190,"5P5Px641Uv","Noise-Shape-Speed-4","Noise","Shape","Speed","4","Speed-SP1-H","Speed-SP1-L","Shape-BK2-H","Shape-BK2-L",0,"Pilot"
8,9,4914,"5P5Px641Uv","Noise-Shape-Speed-4","Noise","Shape","Speed","4","Speed-SP3-L","Speed-SP3-H","Affect-EB-H","Affect-EB-L",1,"Pilot"
9,10,4864,"5P5Px641Uv","Noise-Shape-Speed-4","Noise","Shape","Speed","4","Color-RY-H","Color-RY-L","Shape-BK2-L","Shape-BK2-H",1,"Pilot"
10,11,17628,"5P5Px641Uv","Noise-Shape-Speed-4","Noise","Shape","Speed","4","Shape-BK1-L","Shape-BK1-H","Color-RY-L","Color-RY-H",0,"Pilot"
11,12,5830,"5P5Px641Uv","Noise-Shape-Speed-4","Noise","Shape","Speed","4","Speed-SP3-H","Speed-SP3-L","Pitch-Piano-L","Pitch-Piano-H",1,"Pilot"
12,13,8629,"5P5Px641Uv","Noise-Shape-Speed-4","Noise","Shape","Speed","4","Amp-Piano-H","Amp-Piano-L","Speed-SP1-H","Speed-SP1-L",0,"Pilot"
13,14,6941,"5P5Px641Uv","Noise-Shape-Speed-4","Noise","Shape","Speed","4","Noise-Tone-H","Noise-Tone-L","Speed-SP1-H","Speed-SP1-L",0,"Pilot"
14,15,12958,"5P5Px641Uv","Noise-Shape-Speed-4","Noise","Shape","Speed","4","Amp-Piano-H","Amp-Piano-L","Noise-Hum-L","Noise-Hum-H",1,"Pilot"
15,16,5399,"5P5Px641Uv","Noise-Shape-Speed-4","Noise","Shape","Speed","4","Speed-SP2-L","Speed-SP2-H","Brightness-Diamonds-H","Brightness-Diamonds-L",1,"Pilot"
16,17,5292,"5P5Px641Uv","Noise-Shape-Speed-4","Noise","Shape","Speed","4","Noise-Tone-L","Noise-Tone-H","Color-RY-L","Color-RY-H",0,"Pilot"
17,18,5683,"5P5Px641Uv","Noise-Shape-Speed-4","Noise","Shape","Speed","4","Brightness-Diamonds-L","Brightness-Diamonds-H","Noise-Hum-H","Noise-Hum-L",0,"Pilot"
18,19,5262,"5P5Px641Uv","Noise-Shape-Speed-4","Noise","Shape","Speed","4","Speed-SP3-H","Speed-SP3-L","Noise-Tone-L","Noise-Tone-H",1,"Pilot"
19,20,5801,"5P5Px641Uv","Noise-Shape-Speed-4","Noise","Shape","Speed","4","Size-Squares-L","Size-Squares-H","Noise-Hum-L","Noise-Hum-H",0,"Pilot"
20,21,4455,"5P5Px641Uv","Noise-Shape-Speed-4","Noise","Shape","Speed","4","Shape-BK1-L","Shape-BK1-H","Affect-EB-L","Affect-EB-H",0,"Pilot"
21,22,52864,"5P5Px641Uv","Noise-Shape-Speed-4","Noise","Shape","Speed","4","Speed-SP2-L","Speed-SP2-H","Amp-Piano-L","Amp-Piano-H",0,"Pilot"
22,23,5607,"5P5Px641Uv","Noise-Shape-Speed-4","Noise","Shape","Speed","4","Shape-BK1-H","Shape-BK1-L","Pitch-Piano-H","Pitch-Piano-L",0,"Pilot"
23,24,5224,"5P5Px641Uv","Noise-Shape-Speed-4","Noise","Shape","Speed","4","Pitch-Piano-H","Pitch-Piano-L","Speed-SP4-H","Speed-SP4-L",0,"Pilot"
24,25,6026,"5P5Px641Uv","Noise-Shape-Speed-4","Noise","Shape","Speed","4","Shape-BK2-H","Shape-BK2-L","Noise-Piano-L","Noise-Piano-H",1,"Pilot"
25,26,4593,"5P5Px641Uv","Noise-Shape-Speed-4","Noise","Shape","Speed","4","Speed-SP2-H","Speed-SP2-L","Size-Squares-H","Size-Squares-L",0,"Pilot"
26,27,12522,"5P5Px641Uv","Noise-Shape-Speed-4","Noise","Shape","Speed","4","Noise-Pulse-L","Noise-Pulse-H","Affect-EB-L","Affect-EB-H",1,"Pilot"
27,28,5235,"5P5Px641Uv","Noise-Shape-Speed-4","Noise","Shape","Speed","4","Speed-SP2-H","Speed-SP2-L","Color-RY-L","Color-RY-H",0,"Pilot"
28,29,9439,"5P5Px641Uv","Noise-Shape-Speed-4","Noise","Shape","Speed","4","Pitch-Piano-H","Pitch-Piano-L","Noise-Piano-L","Noise-Piano-H",1,"Pilot"
29,30,5263,"5P5Px641Uv","Noise-Shape-Speed-4","Noise","Shape","Speed","4","Color-RY-L","Color-RY-H","Noise-Piano-H","Noise-Piano-L",1,"Pilot"
30,31,9060,"5P5Px641Uv","Noise-Shape-Speed-4","Noise","Shape","Speed","4","Noise-Tone-H","Noise-Tone-L","Shape-BK2-H","Shape-BK2-L",0,"Pilot"
31,32,3947,"5P5Px641Uv","Noise-Shape-Speed-4","Noise","Shape","Speed","4","Affect-EB-H","Affect-EB-L","Speed-SP4-L","Speed-SP4-H",1,"Pilot"
32,33,5538,"5P5Px641Uv","Noise-Shape-Speed-4","Noise","Shape","Speed","4","Amp-Piano-L","Amp-Piano-H","Speed-SP4-L","Speed-SP4-H",0,"Pilot"
33,34,5732,"5P5Px641Uv","Noise-Shape-Speed-4","Noise","Shape","Speed","4","Shape-BK2-H","Shape-BK2-L","Noise-Hum-H","Noise-Hum-L",0,"Pilot"
34,35,7821,"5P5Px641Uv","Noise-Shape-Speed-4","Noise","Shape","Speed","4","Speed-SP2-H","Speed-SP2-L","Noise-Tone-L","Noise-Tone-H",1,"Pilot"
35,36,4940,"5P5Px641Uv","Noise-Shape-Speed-4","Noise","Shape","Speed","4","Noise-Tone-L","Noise-Tone-H","Speed-SP1-L","Speed-SP1-H",0,"Pilot"
36,37,6152,"5P5Px641Uv","Noise-Shape-Speed-4","Noise","Shape","Speed","4","Noise-Tone-L","Noise-Tone-H","Shape-BK3-L","Shape-BK3-H",0,"Pilot"
37,38,3148,"5P5Px641Uv","Noise-Shape-Speed-4","Noise","Shape","Speed","4","Shape-BK1-H","Shape-BK1-L","Brightness-Diamonds-H","Brightness-Diamonds-L",1,"Pilot"
38,39,5868,"5P5Px641Uv","Noise-Shape-Speed-4","Noise","Shape","Speed","4","Amp-Piano-L","Amp-Piano-H","Shape-BK2-L","Shape-BK2-H",0,"Pilot"
39,40,4661,"5P5Px641Uv","Noise-Shape-Speed-4","Noise","Shape","Speed","4","Brightness-Diamonds-H","Brightness-Diamonds-L","Speed-SP1-H","Speed-SP1-L",1,"Pilot"
40,41,3110,"5P5Px641Uv","Noise-Shape-Speed-4","Noise","Shape","Speed","4","Speed-SP3-L","Speed-SP3-H","Brightness-Diamonds-L","Brightness-Diamonds-H",1,"Pilot"
41,42,4903,"5P5Px641Uv","Noise-Shape-Speed-4","Noise","Shape","Speed","4","Noise-Tone-H","Noise-Tone-L","Shape-BK2-H","Shape-BK2-L",0,"Pilot"
42,43,5097,"5P5Px641Uv","Noise-Shape-Speed-4","Noise","Shape","Speed","4","Noise-Tone-L","Noise-Tone-H","Size-Squares-H","Size-Squares-L",0,"Pilot"
43,44,2953,"5P5Px641Uv","Noise-Shape-Speed-4","Noise","Shape","Speed","4","Brightness-Diamonds-H","Brightness-Diamonds-L","Speed-SP4-L","Speed-SP4-H",0,"Pilot"
44,45,5391,"5P5Px641Uv","Noise-Shape-Speed-4","Noise","Shape","Speed","4","Amp-Piano-H","Amp-Piano-L","Shape-BK3-H","Shape-BK3-L",0,"Pilot"
45,46,6055,"5P5Px641Uv","Noise-Shape-Speed-4","Noise","Shape","Speed","4","Speed-SP1-L","Speed-SP1-H","Noise-Piano-L","Noise-Piano-H",0,"Pilot"
46,47,12640,"5P5Px641Uv","Noise-Shape-Speed-4","Noise","Shape","Speed","4","Noise-Pulse-H","Noise-Pulse-L","Pitch-Piano-H","Pitch-Piano-L",0,"Pilot"
47,48,4729,"5P5Px641Uv","Noise-Shape-Speed-4","Noise","Shape","Speed","4","Shape-BK1-H","Shape-BK1-L","Speed-SP1-L","Speed-SP1-H",1,"Pilot"
48,49,3968,"5P5Px641Uv","Noise-Shape-Speed-4","Noise","Shape","Speed","4","Size-Squares-H","Size-Squares-L","Shape-BK2-L","Shape-BK2-H",1,"Pilot"
49,50,10640,"5P5Px641Uv","Noise-Shape-Speed-4","Noise","Shape","Speed","4","Noise-Pulse-L","Noise-Pulse-H","Amp-Piano-H","Amp-Piano-L",1,"Pilot"
50,51,73256,"5P5Px641Uv","Noise-Shape-Speed-4","Noise","Shape","Speed","4","Brightness-Diamonds-L","Brightness-Diamonds-H","Shape-BK2-H","Shape-BK2-L",0,"Pilot"
51,52,5706,"5P5Px641Uv","Noise-Shape-Speed-4","Noise","Shape","Speed","4","Noise-Pulse-H","Noise-Pulse-L","Shape-BK2-H","Shape-BK2-L",0,"Pilot"
52,53,4885,"5P5Px641Uv","Noise-Shape-Speed-4","Noise","Shape","Speed","4","Shape-BK4-L","Shape-BK4-H","Amp-Piano-L","Amp-Piano-H",0,"Pilot"
53,54,6007,"5P5Px641Uv","Noise-Shape-Speed-4","Noise","Shape","Speed","4","Noise-Tone-L","Noise-Tone-H","Affect-EB-H","Affect-EB-L",1,"Pilot"
54,55,6885,"5P5Px641Uv","Noise-Shape-Speed-4","Noise","Shape","Speed","4","Speed-SP2-L","Speed-SP2-H","Affect-EB-L","Affect-EB-H",0,"Pilot"
55,56,4682,"5P5Px641Uv","Noise-Shape-Speed-4","Noise","Shape","Speed","4","Affect-EB-L","Affect-EB-H","Shape-BK2-L","Shape-BK2-H",0,"Pilot"
56,57,2368,"5P5Px641Uv","Noise-Shape-Speed-4","Noise","Shape","Speed","4","Speed-SP3-L","Speed-SP3-H","Shape-BK2-L","Shape-BK2-H",0,"Pilot"
57,58,4466,"5P5Px641Uv","Noise-Shape-Speed-4","Noise","Shape","Speed","4","Speed-SP1-L","Speed-SP1-H","Noise-Hum-H","Noise-Hum-L",1,"Pilot"
58,59,2837,"5P5Px641Uv","Noise-Shape-Speed-4","Noise","Shape","Speed","4","Shape-BK2-L","Shape-BK2-H","Speed-SP1-H","Speed-SP1-L",1,"Pilot"
59,60,3715,"5P5Px641Uv","Noise-Shape-Speed-4","Noise","Shape","Speed","4","Shape-BK4-H","Shape-BK4-L","Brightness-Diamonds-L","Brightness-Diamonds-H",0,"Pilot"
60,61,5400,"5P5Px641Uv","Noise-Shape-Speed-4","Noise","Shape","Speed","4","Noise-Pulse-H","Noise-Pulse-L","Brightness-Diamonds-H","Brightness-Diamonds-L",1,"Pilot"
61,62,6210,"5P5Px641Uv","Noise-Shape-Speed-4","Noise","Shape","Speed","4","Noise-Tone-L","Noise-Tone-H","Amp-Piano-L","Amp-Piano-H",0,"Pilot"
62,63,5549,"5P5Px641Uv","Noise-Shape-Speed-4","Noise","Shape","Speed","4","Speed-SP1-H","Speed-SP1-L","Shape-BK3-L","Shape-BK3-H",1,"Pilot"
63,64,6983,"5P5Px641Uv","Noise-Shape-Speed-4","Noise","Shape","Speed","4","Size-Squares-L","Size-Squares-H","Noise-Piano-H","Noise-Piano-L",1,"Pilot"
64,65,22457,"5P5Px641Uv","Noise-Shape-Speed-4","Noise","Shape","Speed","4","Shape-BK4-L","Shape-BK4-H","Size-Squares-L","Size-Squares-H",0,"Pilot"
65,66,3413,"5P5Px641Uv","Noise-Shape-Speed-4","Noise","Shape","Speed","4","Shape-BK4-H","Shape-BK4-L","Speed-SP1-H","Speed-SP1-L",0,"Pilot"
66,67,2610,"5P5Px641Uv","Noise-Shape-Speed-4","Noise","Shape","Speed","4","Shape-BK2-L","Shape-BK2-H","Speed-SP4-L","Speed-SP4-H",0,"Pilot"
67,68,6418,"5P5Px641Uv","Noise-Shape-Speed-4","Noise","Shape","Speed","4","Pitch-Piano-L","Pitch-Piano-H","Shape-BK2-H","Shape-BK2-L",1,"Pilot"
68,69,3733,"5P5Px641Uv","Noise-Shape-Speed-4","Noise","Shape","Speed","4","Shape-BK1-L","Shape-BK1-H","Size-Squares-L","Size-Squares-H",0,"Pilot"
69,70,4447,"5P5Px641Uv","Noise-Shape-Speed-4","Noise","Shape","Speed","4","Shape-BK4-L","Shape-BK4-H","Affect-EB-H","Affect-EB-L",1,"Pilot"
70,71,5226,"5P5Px641Uv","Noise-Shape-Speed-4","Noise","Shape","Speed","4","Shape-BK4-H","Shape-BK4-L","Noise-Tone-H","Noise-Tone-L",0,"Pilot"
71,72,4962,"5P5Px641Uv","Noise-Shape-Speed-4","Noise","Shape","Speed","4","Pitch-Piano-L","Pitch-Piano-H","Shape-BK3-L","Shape-BK3-H",0,"Pilot"
72,73,9089,"5P5Px641Uv","Noise-Shape-Speed-4","Noise","Shape","Speed","4","Noise-Tone-H","Noise-Tone-L","Pitch-Piano-H","Pitch-Piano-L",0,"Pilot"
73,74,150719,"5P5Px641Uv","Noise-Shape-Speed-4","Noise","Shape","Speed","4","Shape-BK4-L","Shape-BK4-H","Color-RY-H","Color-RY-L",1,"Pilot"
74,75,5332,"5P5Px641Uv","Noise-Shape-Speed-4","Noise","Shape","Speed","4","Speed-SP3-L","Speed-SP3-H","Amp-Piano-H","Amp-Piano-L",1,"Pilot"
75,76,5784,"5P5Px641Uv","Noise-Shape-Speed-4","Noise","Shape","Speed","4","Affect-EB-H","Affect-EB-L","Shape-BK3-H","Shape-BK3-L",0,"Pilot"
76,77,3028,"5P5Px641Uv","Noise-Shape-Speed-4","Noise","Shape","Speed","4","Speed-SP2-L","Speed-SP2-H","Shape-BK2-L","Shape-BK2-H",0,"Pilot"
77,78,5178,"5P5Px641Uv","Noise-Shape-Speed-4","Noise","Shape","Speed","4","Size-Squares-L","Size-Squares-H","Speed-SP4-H","Speed-SP4-L",1,"Pilot"
78,79,5371,"5P5Px641Uv","Noise-Shape-Speed-4","Noise","Shape","Speed","4","Affect-EB-L","Affect-EB-H","Noise-Piano-H","Noise-Piano-L",1,"Pilot"
79,80,12696,"5P5Px641Uv","Noise-Shape-Speed-4","Noise","Shape","Speed","4","Amp-Piano-H","Amp-Piano-L","Noise-Piano-H","Noise-Piano-L",0,"Pilot"
80,81,4053,"5P5Px641Uv","Noise-Shape-Speed-4","Noise","Shape","Speed","4","Speed-SP3-H","Speed-SP3-L","Color-RY-L","Color-RY-H",1,"Pilot"
81,82,3821,"5P5Px641Uv","Noise-Shape-Speed-4","Noise","Shape","Speed","4","Size-Squares-L","Size-Squares-H","Shape-BK3-H","Shape-BK3-L",1,"Pilot"
82,83,3148,"5P5Px641Uv","Noise-Shape-Speed-4","Noise","Shape","Speed","4","Color-RY-L","Color-RY-H","Speed-SP1-L","Speed-SP1-H",0,"Pilot"
83,84,8355,"5P5Px641Uv","Noise-Shape-Speed-4","Noise","Shape","Speed","4","Pitch-Piano-L","Pitch-Piano-H","Noise-Hum-H","Noise-Hum-L",1,"Pilot"
84,85,4452,"5P5Px641Uv","Noise-Shape-Speed-4","Noise","Shape","Speed","4","Noise-Tone-L","Noise-Tone-H","Speed-SP4-H","Speed-SP4-L",1,"Pilot"
85,86,5048,"5P5Px641Uv","Noise-Shape-Speed-4","Noise","Shape","Speed","4","Speed-SP2-H","Speed-SP2-L","Pitch-Piano-L","Pitch-Piano-H",1,"Pilot"
86,87,2856,"5P5Px641Uv","Noise-Shape-Speed-4","Noise","Shape","Speed","4","Speed-SP3-H","Speed-SP3-L","Size-Squares-H","Size-Squares-L",0,"Pilot"
87,88,4785,"5P5Px641Uv","Noise-Shape-Speed-4","Noise","Shape","Speed","4","Shape-BK1-L","Shape-BK1-H","Amp-Piano-L","Amp-Piano-H",0,"Pilot"
88,89,3381,"5P5Px641Uv","Noise-Shape-Speed-4","Noise","Shape","Speed","4","Color-RY-H","Color-RY-L","Shape-BK3-H","Shape-BK3-L",0,"Pilot"
89,90,7516,"5P5Px641Uv","Noise-Shape-Speed-4","Noise","Shape","Speed","4","Noise-Tone-H","Noise-Tone-L","Brightness-Diamonds-H","Brightness-Diamonds-L",1,"Pilot"
90,91,5966,"5P5Px641Uv","Noise-Shape-Speed-4","Noise","Shape","Speed","4","Brightness-Diamonds-H","Brightness-Diamonds-L","Noise-Piano-L","Noise-Piano-H",1,"Pilot"
91,92,4119,"5P5Px641Uv","Noise-Shape-Speed-4","Noise","Shape","Speed","4","Shape-BK4-H","Shape-BK4-L","Pitch-Piano-H","Pitch-Piano-L",0,"Pilot"
92,93,6882,"5P5Px641Uv","Noise-Shape-Speed-4","Noise","Shape","Speed","4","Noise-Pulse-H","Noise-Pulse-L","Speed-SP1-L","Speed-SP1-H",1,"Pilot"
93,94,3937,"5P5Px641Uv","Noise-Shape-Speed-4","Noise","Shape","Speed","4","Affect-EB-H","Affect-EB-L","Noise-Hum-L","Noise-Hum-H",1,"Pilot"
94,95,4142,"5P5Px641Uv","Noise-Shape-Speed-4","Noise","Shape","Speed","4","Noise-Pulse-L","Noise-Pulse-H","Color-RY-L","Color-RY-H",0,"Pilot"
95,96,4346,"5P5Px641Uv","Noise-Shape-Speed-4","Noise","Shape","Speed","4","Shape-BK1-H","Shape-BK1-L","Noise-Tone-H","Noise-Tone-L",0,"Pilot"
0,1,9152,"8G0bMGKrqI","Noise-Brightness-Color-1","Noise","Brightness","Color","1","Shape-BK1-L","Shape-BK1-H","Brightness-Squares-H","Brightness-Squares-L",0,"Pilot"
1,2,6547,"8G0bMGKrqI","Noise-Brightness-Color-1","Noise","Brightness","Color","1","Speed-SP2-H","Speed-SP2-L","Brightness-Squares-L","Brightness-Squares-H",1,"Pilot"
2,3,8713,"8G0bMGKrqI","Noise-Brightness-Color-1","Noise","Brightness","Color","1","Size-Circles-L","Size-Circles-H","Color-RY-H","Color-RY-L",0,"Pilot"
3,4,7412,"8G0bMGKrqI","Noise-Brightness-Color-1","Noise","Brightness","Color","1","Noise-Hum-L","Noise-Hum-H","Brightness-Circles-H","Brightness-Circles-L",0,"Pilot"
4,5,11789,"8G0bMGKrqI","Noise-Brightness-Color-1","Noise","Brightness","Color","1","Size-Circles-H","Size-Circles-L","Noise-Tone-L","Noise-Tone-H",1,"Pilot"
5,6,8967,"8G0bMGKrqI","Noise-Brightness-Color-1","Noise","Brightness","Color","1","Brightness-Triangles-H","Brightness-Triangles-L","Size-Circles-H","Size-Circles-L",0,"Pilot"
6,7,6689,"8G0bMGKrqI","Noise-Brightness-Color-1","Noise","Brightness","Color","1","Brightness-Diamonds-H","Brightness-Diamonds-L","Noise-Pulse-L","Noise-Pulse-H",0,"Pilot"
7,8,17102,"8G0bMGKrqI","Noise-Brightness-Color-1","Noise","Brightness","Color","1","Noise-Hum-H","Noise-Hum-L","Color-RB-L","Color-RB-H",1,"Pilot"
8,9,8248,"8G0bMGKrqI","Noise-Brightness-Color-1","Noise","Brightness","Color","1","Noise-Piano-L","Noise-Piano-H","Affect-HS-L","Affect-HS-H",1,"Pilot"
9,10,5821,"8G0bMGKrqI","Noise-Brightness-Color-1","Noise","Brightness","Color","1","Noise-Hum-H","Noise-Hum-L","Shape-BK1-L","Shape-BK1-H",1,"Pilot"
10,11,6674,"8G0bMGKrqI","Noise-Brightness-Color-1","Noise","Brightness","Color","1","Affect-HS-L","Affect-HS-H","Noise-Tone-L","Noise-Tone-H",1,"Pilot"
11,12,5911,"8G0bMGKrqI","Noise-Brightness-Color-1","Noise","Brightness","Color","1","Brightness-Diamonds-H","Brightness-Diamonds-L","Noise-Hum-H","Noise-Hum-L",1,"Pilot"
12,13,6970,"8G0bMGKrqI","Noise-Brightness-Color-1","Noise","Brightness","Color","1","Brightness-Diamonds-L","Brightness-Diamonds-H","Color-RG-H","Color-RG-L",0,"Pilot"
13,14,6212,"8G0bMGKrqI","Noise-Brightness-Color-1","Noise","Brightness","Color","1","Affect-HS-H","Affect-HS-L","Color-RY-L","Color-RY-H",0,"Pilot"
14,15,18287,"8G0bMGKrqI","Noise-Brightness-Color-1","Noise","Brightness","Color","1","Noise-Hum-L","Noise-Hum-H","Amp-Piano-H","Amp-Piano-L",0,"Pilot"
15,16,8383,"8G0bMGKrqI","Noise-Brightness-Color-1","Noise","Brightness","Color","1","Affect-HS-H","Affect-HS-L","Noise-Pulse-H","Noise-Pulse-L",1,"Pilot"
16,17,4926,"8G0bMGKrqI","Noise-Brightness-Color-1","Noise","Brightness","Color","1","Affect-HS-H","Affect-HS-L","Brightness-Squares-H","Brightness-Squares-L",0,"Pilot"
17,18,6749,"8G0bMGKrqI","Noise-Brightness-Color-1","Noise","Brightness","Color","1","Color-YB-L","Color-YB-H","Amp-Piano-H","Amp-Piano-L",1,"Pilot"
18,19,5031,"8G0bMGKrqI","Noise-Brightness-Color-1","Noise","Brightness","Color","1","Brightness-Diamonds-L","Brightness-Diamonds-H","Shape-BK1-L","Shape-BK1-H",1,"Pilot"
19,20,6738,"8G0bMGKrqI","Noise-Brightness-Color-1","Noise","Brightness","Color","1","Color-RG-L","Color-RG-H","Brightness-Squares-H","Brightness-Squares-L",0,"Pilot"
20,21,8603,"8G0bMGKrqI","Noise-Brightness-Color-1","Noise","Brightness","Color","1","Size-Circles-H","Size-Circles-L","Color-RB-L","Color-RB-H",0,"Pilot"
21,22,7417,"8G0bMGKrqI","Noise-Brightness-Color-1","Noise","Brightness","Color","1","Amp-Piano-L","Amp-Piano-H","Color-RB-H","Color-RB-L",1,"Pilot"
22,23,13570,"8G0bMGKrqI","Noise-Brightness-Color-1","Noise","Brightness","Color","1","Noise-Piano-H","Noise-Piano-L","Pitch-Tone-H","Pitch-Tone-L",0,"Pilot"
23,24,11588,"8G0bMGKrqI","Noise-Brightness-Color-1","Noise","Brightness","Color","1","Noise-Piano-H","Noise-Piano-L","Speed-SP2-L","Speed-SP2-H",1,"Pilot"
24,25,5927,"8G0bMGKrqI","Noise-Brightness-Color-1","Noise","Brightness","Color","1","Pitch-Tone-H","Pitch-Tone-L","Brightness-Circles-H","Brightness-Circles-L",0,"Pilot"
25,26,35078,"8G0bMGKrqI","Noise-Brightness-Color-1","Noise","Brightness","Color","1","Noise-Piano-L","Noise-Piano-H","Amp-Piano-L","Amp-Piano-H",1,"Pilot"
26,27,11064,"8G0bMGKrqI","Noise-Brightness-Color-1","Noise","Brightness","Color","1","Pitch-Tone-L","Pitch-Tone-H","Color-RY-H","Color-RY-L",0,"Pilot"
27,28,11505,"8G0bMGKrqI","Noise-Brightness-Color-1","Noise","Brightness","Color","1","Speed-SP2-H","Speed-SP2-L","Noise-Pulse-L","Noise-Pulse-H",0,"Pilot"
28,29,4916,"8G0bMGKrqI","Noise-Brightness-Color-1","Noise","Brightness","Color","1","Color-RG-L","Color-RG-H","Shape-BK1-L","Shape-BK1-H",0,"Pilot"
29,30,4618,"8G0bMGKrqI","Noise-Brightness-Color-1","Noise","Brightness","Color","1","Brightness-Diamonds-L","Brightness-Diamonds-H","Color-RY-L","Color-RY-H",1,"Pilot"
30,31,11620,"8G0bMGKrqI","Noise-Brightness-Color-1","Noise","Brightness","Color","1","Color-RG-H","Color-RG-L","Pitch-Tone-L","Pitch-Tone-H",0,"Pilot"
31,32,8304,"8G0bMGKrqI","Noise-Brightness-Color-1","Noise","Brightness","Color","1","Speed-SP2-H","Speed-SP2-L","Noise-Tone-H","Noise-Tone-L",0,"Pilot"
32,33,6070,"8G0bMGKrqI","Noise-Brightness-Color-1","Noise","Brightness","Color","1","Color-YB-H","Color-YB-L","Noise-Hum-L","Noise-Hum-H",0,"Pilot"
33,34,9216,"8G0bMGKrqI","Noise-Brightness-Color-1","Noise","Brightness","Color","1","Color-RG-H","Color-RG-L","Noise-Tone-L","Noise-Tone-H",1,"Pilot"
34,35,8195,"8G0bMGKrqI","Noise-Brightness-Color-1","Noise","Brightness","Color","1","Speed-SP2-H","Speed-SP2-L","Brightness-Circles-H","Brightness-Circles-L",0,"Pilot"
35,36,6432,"8G0bMGKrqI","Noise-Brightness-Color-1","Noise","Brightness","Color","1","Color-RG-H","Color-RG-L","Speed-SP2-L","Speed-SP2-H",0,"Pilot"
36,37,5620,"8G0bMGKrqI","Noise-Brightness-Color-1","Noise","Brightness","Color","1","Shape-BK1-L","Shape-BK1-H","Noise-Tone-H","Noise-Tone-L",1,"Pilot"
37,38,7143,"8G0bMGKrqI","Noise-Brightness-Color-1","Noise","Brightness","Color","1","Color-RG-L","Color-RG-H","Amp-Piano-L","Amp-Piano-H",1,"Pilot"
38,39,13617,"8G0bMGKrqI","Noise-Brightness-Color-1","Noise","Brightness","Color","1","Pitch-Tone-H","Pitch-Tone-L","Noise-Tone-H","Noise-Tone-L",0,"Pilot"
39,40,6751,"8G0bMGKrqI","Noise-Brightness-Color-1","Noise","Brightness","Color","1","Affect-HS-L","Affect-HS-H","Color-RB-H","Color-RB-L",1,"Pilot"
40,41,7690,"8G0bMGKrqI","Noise-Brightness-Color-1","Noise","Brightness","Color","1","Noise-Hum-H","Noise-Hum-L","Brightness-Squares-L","Brightness-Squares-H",0,"Pilot"
41,42,11149,"8G0bMGKrqI","Noise-Brightness-Color-1","Noise","Brightness","Color","1","Shape-BK1-L","Shape-BK1-H","Brightness-Circles-L","Brightness-Circles-H",1,"Pilot"
42,43,4947,"8G0bMGKrqI","Noise-Brightness-Color-1","Noise","Brightness","Color","1","Brightness-Diamonds-L","Brightness-Diamonds-H","Affect-HS-L","Affect-HS-H",0,"Pilot"
43,44,5879,"8G0bMGKrqI","Noise-Brightness-Color-1","Noise","Brightness","Color","1","Speed-SP2-L","Speed-SP2-H","Color-RB-L","Color-RB-H",0,"Pilot"
44,45,6256,"8G0bMGKrqI","Noise-Brightness-Color-1","Noise","Brightness","Color","1","Noise-Piano-H","Noise-Piano-L","Brightness-Diamonds-H","Brightness-Diamonds-L",1,"Pilot"
45,46,10195,"8G0bMGKrqI","Noise-Brightness-Color-1","Noise","Brightness","Color","1","Amp-Piano-H","Amp-Piano-L","Noise-Tone-L","Noise-Tone-H",0,"Pilot"
46,47,4790,"8G0bMGKrqI","Noise-Brightness-Color-1","Noise","Brightness","Color","1","Color-YB-H","Color-YB-L","Speed-SP2-H","Speed-SP2-L",0,"Pilot"
47,48,7771,"8G0bMGKrqI","Noise-Brightness-Color-1","Noise","Brightness","Color","1","Color-RG-L","Color-RG-H","Noise-Pulse-H","Noise-Pulse-L",1,"Pilot"
48,49,4593,"8G0bMGKrqI","Noise-Brightness-Color-1","Noise","Brightness","Color","1","Brightness-Triangles-L","Brightness-Triangles-H","Affect-HS-L","Affect-HS-H",0,"Pilot"
49,50,6309,"8G0bMGKrqI","Noise-Brightness-Color-1","Noise","Brightness","Color","1","Size-Circles-H","Size-Circles-L","Noise-Pulse-H","Noise-Pulse-L",0,"Pilot"
50,51,5460,"8G0bMGKrqI","Noise-Brightness-Color-1","Noise","Brightness","Color","1","Shape-BK1-H","Shape-BK1-L","Color-RY-L","Color-RY-H",1,"Pilot"
51,52,3766,"8G0bMGKrqI","Noise-Brightness-Color-1","Noise","Brightness","Color","1","Color-YB-L","Color-YB-H","Brightness-Diamonds-L","Brightness-Diamonds-H",0,"Pilot"
52,53,7305,"8G0bMGKrqI","Noise-Brightness-Color-1","Noise","Brightness","Color","1","Amp-Piano-H","Amp-Piano-L","Brightness-Squares-H","Brightness-Squares-L",0,"Pilot"
53,54,10120,"8G0bMGKrqI","Noise-Brightness-Color-1","Noise","Brightness","Color","1","Amp-Piano-L","Amp-Piano-H","Noise-Pulse-H","Noise-Pulse-L",1,"Pilot"
54,55,6849,"8G0bMGKrqI","Noise-Brightness-Color-1","Noise","Brightness","Color","1","Color-RG-H","Color-RG-L","Size-Circles-H","Size-Circles-L",1,"Pilot"
55,56,6771,"8G0bMGKrqI","Noise-Brightness-Color-1","Noise","Brightness","Color","1","Noise-Hum-L","Noise-Hum-H","Color-RY-H","Color-RY-L",1,"Pilot"
56,57,4805,"8G0bMGKrqI","Noise-Brightness-Color-1","Noise","Brightness","Color","1","Affect-HS-L","Affect-HS-H","Brightness-Circles-L","Brightness-Circles-H",0,"Pilot"
57,58,4329,"8G0bMGKrqI","Noise-Brightness-Color-1","Noise","Brightness","Color","1","Size-Circles-L","Size-Circles-H","Brightness-Circles-H","Brightness-Circles-L",1,"Pilot"
58,59,8642,"8G0bMGKrqI","Noise-Brightness-Color-1","Noise","Brightness","Color","1","Size-Circles-L","Size-Circles-H","Brightness-Squares-L","Brightness-Squares-H",0,"Pilot"
59,60,3012,"8G0bMGKrqI","Noise-Brightness-Color-1","Noise","Brightness","Color","1","Color-YB-L","Color-YB-H","Shape-BK1-L","Shape-BK1-H",1,"Pilot"
60,61,4446,"8G0bMGKrqI","Noise-Brightness-Color-1","Noise","Brightness","Color","1","Brightness-Diamonds-L","Brightness-Diamonds-H","Color-RB-H","Color-RB-L",0,"Pilot"
61,62,5038,"8G0bMGKrqI","Noise-Brightness-Color-1","Noise","Brightness","Color","1","Brightness-Diamonds-H","Brightness-Diamonds-L","Pitch-Tone-L","Pitch-Tone-H",1,"Pilot"
62,63,5025,"8G0bMGKrqI","Noise-Brightness-Color-1","Noise","Brightness","Color","1","Brightness-Triangles-L","Brightness-Triangles-H","Amp-Piano-L","Amp-Piano-H",0,"Pilot"
63,64,5062,"8G0bMGKrqI","Noise-Brightness-Color-1","Noise","Brightness","Color","1","Speed-SP2-H","Speed-SP2-L","Color-RY-H","Color-RY-L",1,"Pilot"
64,65,6439,"8G0bMGKrqI","Noise-Brightness-Color-1","Noise","Brightness","Color","1","Noise-Hum-L","Noise-Hum-H","Size-Circles-H","Size-Circles-L",1,"Pilot"
65,66,5053,"8G0bMGKrqI","Noise-Brightness-Color-1","Noise","Brightness","Color","1","Color-YB-H","Color-YB-L","Pitch-Tone-H","Pitch-Tone-L",0,"Pilot"
66,67,4334,"8G0bMGKrqI","Noise-Brightness-Color-1","Noise","Brightness","Color","1","Brightness-Diamonds-L","Brightness-Diamonds-H","Noise-Tone-H","Noise-Tone-L",0,"Pilot"
67,68,8546,"8G0bMGKrqI","Noise-Brightness-Color-1","Noise","Brightness","Color","1","Noise-Piano-L","Noise-Piano-H","Size-Circles-H","Size-Circles-L",1,"Pilot"
68,69,3942,"8G0bMGKrqI","Noise-Brightness-Color-1","Noise","Brightness","Color","1","Color-YB-L","Color-YB-H","Affect-HS-H","Affect-HS-L",1,"Pilot"
69,70,4259,"8G0bMGKrqI","Noise-Brightness-Color-1","Noise","Brightness","Color","1","Color-RG-L","Color-RG-H","Brightness-Diamonds-L","Brightness-Diamonds-H",1,"Pilot"
70,71,4478,"8G0bMGKrqI","Noise-Brightness-Color-1","Noise","Brightness","Color","1","Amp-Piano-L","Amp-Piano-H","Brightness-Circles-L","Brightness-Circles-H",0,"Pilot"
71,72,5405,"8G0bMGKrqI","Noise-Brightness-Color-1","Noise","Brightness","Color","1","Noise-Hum-L","Noise-Hum-H","Affect-HS-H","Affect-HS-L",0,"Pilot"
72,73,4349,"8G0bMGKrqI","Noise-Brightness-Color-1","Noise","Brightness","Color","1","Pitch-Tone-H","Pitch-Tone-L","Brightness-Squares-L","Brightness-Squares-H",1,"Pilot"
73,74,11236,"8G0bMGKrqI","Noise-Brightness-Color-1","Noise","Brightness","Color","1","Noise-Hum-H","Noise-Hum-L","Speed-SP2-H","Speed-SP2-L",0,"Pilot"
74,75,4272,"8G0bMGKrqI","Noise-Brightness-Color-1","Noise","Brightness","Color","1","Brightness-Triangles-H","Brightness-Triangles-L","Pitch-Tone-H","Pitch-Tone-L",0,"Pilot"
75,76,4791,"8G0bMGKrqI","Noise-Brightness-Color-1","Noise","Brightness","Color","1","Noise-Hum-H","Noise-Hum-L","Brightness-Diamonds-H","Brightness-Diamonds-L",1,"Pilot"
76,77,4273,"8G0bMGKrqI","Noise-Brightness-Color-1","Noise","Brightness","Color","1","Color-YB-H","Color-YB-L","Size-Circles-L","Size-Circles-H",1,"Pilot"
77,78,4406,"8G0bMGKrqI","Noise-Brightness-Color-1","Noise","Brightness","Color","1","Color-RG-H","Color-RG-L","Noise-Hum-H","Noise-Hum-L",0,"Pilot"
78,79,3477,"8G0bMGKrqI","Noise-Brightness-Color-1","Noise","Brightness","Color","1","Color-RG-L","Color-RG-H","Affect-HS-H","Affect-HS-L",0,"Pilot"
79,80,2952,"8G0bMGKrqI","Noise-Brightness-Color-1","Noise","Brightness","Color","1","Color-RG-H","Color-RG-L","Brightness-Circles-L","Brightness-Circles-H",0,"Pilot"
